Time[ms];Pressure[Pa];Approxaltitude[m];Temperature[degC];accX[m/s2];accY[m/s2];accZ[m/s2];rotX[rad/s];rotY[rad/s];rotZ[rad/s];magX[uT];magY[uT];magZ[uT];roll[deg];pitch[deg];heading[deg];tempMPU[degC];Satellites[];Date[yyyy-mm-dd];Time[hh:mm:ss];Latitude[deg];Longitude[deg];RelativeX[m];RelativeY[m];Altitude[m];Angle[deg];deltapressure[Pa];speed[m/s];tempPitot[degC];Ch0;Ch1;Ch2;Ch3;
159060;101890;-46.94;31.8;0.833;-0.551;-10.482;0.022;-0.058;-0.002;27.691;2.509;26.699;0.3;-4.7;187.5;34.9;12;2025-05-13;13:06:43;51.935.516;4.194.790;-11.945.195.313;-6.901.338.379;4.4;0.00;31.04;7.18;27.0;396.00;395.00;395.00;396.00;
159094;101890;-47.09;31.8;1.020;-0.527;-10.434;0.021;-0.056;-0.002;29.309;1.971;25.832;0.3;-4.8;187.3;34.8;12;2025-05-13;13:06:43;51.935.516;4.194.790;-11.945.195.313;-6.901.338.379;4.4;0.00;31.04;7.18;27.0;396.00;395.00;395.00;396.00;
159194;101891;-47.08;31.8;0.891;-0.565;-10.410;0.019;-0.067;-0.014;28.410;2.151;25.312;0.4;-4.7;187.2;34.9;12;2025-05-13;13:06:44;51.935.516;4.194.790;-11.945.195.313;-6.901.356.934;4.4;0.00;31.04;7.18;27.0;396.00;395.00;395.00;396.00;
159294;101893;-47.26;31.8;0.934;-0.517;-10.520;0.017;-0.064;-0.017;28.410;2.151;25.312;0.4;-4.8;187.1;34.8;12;2025-05-13;13:06:44;51.935.516;4.194.790;-11.945.195.313;-6.901.356.934;4.4;0.00;25.78;6.54;27.0;396.00;395.00;395.00;396.00;
159394;101892;-47.16;31.8;1.097;-0.551;-10.587;0.022;-0.071;-0.013;28.410;2.151;25.312;0.5;-4.8;187.0;34.9;12;2025-05-13;13:06:44;51.935.516;4.194.790;-11.945.195.313;-6.901.356.934;4.2;0.00;31.04;7.18;27.0;396.00;395.00;395.00;396.00;
159494;101891;-47.06;31.8;0.790;-0.555;-10.396;0.023;-0.066;-0.010;28.410;2.151;25.312;0.5;-4.8;186.9;34.9;12;2025-05-13;13:06:44;51.935.516;4.194.790;-11.945.195.313;-6.901.356.934;4.2;0.00;33.14;7.42;27.0;396.00;395.00;395.00;396.00;
159594;101893;-47.19;31.8;1.073;-0.469;-10.468;0.019;-0.058;-0.015;28.410;2.151;25.312;0.6;-4.8;186.8;34.9;12;2025-05-13;13:06:44;51.935.516;4.194.790;-11.945.195.313;-6.901.356.934;4.2;0.00;33.14;7.42;27.0;396.00;395.00;395.00;396.00;
159694;101891;-47.09;31.8;0.843;-0.632;-10.492;0.021;-0.071;-0.014;28.410;2.151;25.312;0.6;-4.8;186.7;34.9;12;2025-05-13;13:06:44;51.935.516;4.194.790;-11.945.195.313;-6.901.356.934;4.2;0.00;31.04;7.18;27.0;396.00;395.00;395.00;396.00;
159794;101895;-47.39;31.8;0.881;-0.517;-10.377;0.020;-0.058;-0.006;28.410;2.151;25.312;0.7;-4.8;186.6;34.9;12;2025-05-13;13:06:44;51.935.516;4.194.790;-11.945.195.313;-6.901.356.934;4.2;0.00;33.14;7.42;27.0;396.00;395.00;395.00;396.00;
159894;101893;-47.26;31.8;1.087;-0.613;-10.405;0.025;-0.065;-0.014;28.410;2.151;25.312;0.7;-4.8;186.5;34.8;12;2025-05-13;13:06:44;51.935.516;4.194.790;-11.945.195.313;-6.901.356.934;4.2;0.00;33.14;7.42;27.0;396.00;395.00;395.00;396.00;
159994;101892;-47.16;31.8;0.924;-0.579;-10.506;0.022;-0.059;-0.014;28.410;2.151;25.312;0.8;-4.8;186.4;34.8;12;2025-05-13;13:06:44;51.935.516;4.194.790;-11.945.195.313;-6.901.356.934;4.2;0.00;33.14;7.42;27.0;396.00;395.00;395.00;396.00;
160094;101891;-47.06;31.8;0.967;-0.532;-10.338;0.020;-0.066;-0.014;28.410;2.151;25.312;0.8;-4.8;186.3;34.9;12;2025-05-13;13:06:44;51.935.516;4.194.790;-11.945.195.313;-6.901.356.934;4.2;0.00;36.30;7.77;27.0;396.00;395.00;395.00;396.00;
160194;101890;-47.01;31.8;1.106;-0.584;-10.544;0.019;-0.065;-0.006;28.410;2.151;25.312;0.9;-4.9;186.2;34.8;12;2025-05-13;13:06:45;51.935.516;4.194.788;-11.945.343.750;-6.901.468.262;4.2;0.00;36.30;7.77;27.0;396.00;395.00;395.00;396.00;
160294;101889;-46.90;31.8;1.039;-0.445;-10.535;0.023;-0.067;-0.018;28.410;2.151;25.312;0.9;-4.9;186.1;34.9;12;2025-05-13;13:06:45;51.935.516;4.194.788;-11.945.343.750;-6.901.468.262;4.2;0.00;36.30;7.77;27.0;396.00;395.00;395.00;396.00;
160394;101891;-47.02;31.8;0.800;-0.484;-10.420;0.021;-0.061;-0.015;28.410;2.151;25.312;0.9;-4.9;186.0;34.9;12;2025-05-13;13:06:45;51.935.516;4.194.788;-11.945.343.750;-6.901.468.262;3.8;0.00;33.14;7.42;27.0;396.00;395.00;395.00;396.00;
160494;101892;-47.15;31.8;0.991;-0.618;-10.472;0.016;-0.066;-0.011;28.410;2.151;25.312;1.0;-4.9;185.9;34.9;12;2025-05-13;13:06:45;51.935.516;4.194.788;-11.945.343.750;-6.901.468.262;3.8;0.00;36.30;7.77;27.0;396.00;395.00;395.00;396.00;
160594;101891;-47.10;31.8;1.231;-0.522;-10.362;0.022;-0.060;-0.013;28.410;2.151;25.312;1.0;-5.0;185.8;34.9;12;2025-05-13;13:06:45;51.935.516;4.194.788;-11.945.343.750;-6.901.468.262;3.8;0.00;27.88;6.81;27.0;396.00;395.00;395.00;396.00;
160694;101894;-47.27;31.8;0.828;-0.508;-10.458;0.020;-0.058;-0.013;28.410;2.151;25.312;1.0;-4.9;185.7;34.9;12;2025-05-13;13:06:45;51.935.516;4.194.788;-11.945.343.750;-6.901.468.262;3.8;0.00;31.04;7.18;27.0;396.00;395.00;395.00;396.00;
160794;101893;-47.23;31.8;1.068;-0.603;-10.362;0.021;-0.062;-0.007;28.410;2.151;25.312;1.1;-5.0;185.6;34.9;12;2025-05-13;13:06:45;51.935.516;4.194.788;-11.945.343.750;-6.901.468.262;3.8;0.00;37.35;7.88;27.0;396.00;395.00;395.00;396.00;
160894;101891;-47.07;31.8;0.862;-0.407;-10.444;0.020;-0.066;-0.012;27.691;1.792;27.392;1.1;-4.9;185.5;34.9;12;2025-05-13;13:06:45;51.935.516;4.194.788;-11.945.343.750;-6.901.468.262;3.8;0.00;31.04;7.18;27.0;396.00;395.00;395.00;396.00;
160994;101891;-47.09;31.8;1.111;-0.589;-10.535;0.021;-0.071;-0.017;27.691;1.792;27.392;1.1;-5.0;185.5;34.9;12;2025-05-13;13:06:45;51.935.516;4.194.788;-11.945.343.750;-6.901.468.262;3.8;0.00;37.35;7.88;27.0;396.00;395.00;395.00;396.00;
161094;101892;-47.12;31.8;1.049;-0.479;-10.549;0.021;-0.061;-0.011;27.691;1.792;27.392;1.1;-5.0;185.4;34.9;12;2025-05-13;13:06:45;51.935.516;4.194.788;-11.945.343.750;-6.901.468.262;3.8;0.00;36.30;7.77;27.0;396.00;395.00;395.00;396.00;
161194;101890;-47.00;31.8;0.934;-0.522;-10.573;0.022;-0.067;-0.017;27.691;1.792;27.392;1.1;-5.0;185.3;34.9;12;2025-05-13;13:06:46;51.935.516;4.194.790;-11.945.229.492;-6.901.208.496;3.8;0.00;28.93;6.93;27.0;396.00;395.00;395.00;396.00;
161294;101890;-46.94;31.8;0.958;-0.522;-10.458;0.018;-0.064;-0.010;27.691;1.792;27.392;1.1;-5.0;185.2;34.8;12;2025-05-13;13:06:46;51.935.516;4.194.790;-11.945.229.492;-6.901.208.496;3.8;0.00;36.30;7.77;27.0;396.00;395.00;395.00;396.00;
161394;101890;-47.01;31.8;1.058;-0.498;-10.554;0.021;-0.058;-0.011;27.691;1.792;27.392;1.1;-5.0;185.1;34.9;12;2025-05-13;13:06:46;51.935.516;4.194.790;-11.945.229.492;-6.901.208.496;4.1;0.00;36.30;7.77;27.0;396.00;395.00;395.00;396.00;
161494;101892;-47.13;31.8;0.972;-0.546;-10.472;0.018;-0.069;-0.018;27.691;1.792;27.392;1.2;-5.0;185.0;34.9;12;2025-05-13;13:06:46;51.935.516;4.194.790;-11.945.229.492;-6.901.208.496;4.1;0.00;27.88;6.81;27.0;396.00;395.00;395.00;396.00;
161594;101891;-47.09;31.8;0.958;-0.527;-10.348;0.017;-0.056;-0.011;27.691;1.792;27.392;1.2;-5.0;184.9;34.9;12;2025-05-13;13:06:46;51.935.516;4.194.790;-11.945.229.492;-6.901.208.496;4.1;0.00;31.04;7.18;27.0;396.00;395.00;395.00;396.00;
161694;101891;-47.08;31.8;1.140;-0.512;-10.477;0.023;-0.068;-0.017;27.691;1.792;27.392;1.2;-5.1;184.9;34.9;12;2025-05-13;13:06:46;51.935.516;4.194.790;-11.945.229.492;-6.901.208.496;4.1;0.00;37.35;7.88;27.0;396.00;395.00;395.00;396.00;
161794;101889;-46.93;31.8;0.713;-0.536;-10.434;0.022;-0.067;-0.017;27.691;1.792;27.392;1.2;-5.0;184.8;34.9;12;2025-05-13;13:06:46;51.935.516;4.194.790;-11.945.229.492;-6.901.208.496;4.1;0.00;37.35;7.88;27.0;396.00;395.00;395.00;396.00;
161894;101891;-47.05;31.8;1.010;-0.503;-10.305;0.023;-0.054;-0.010;27.691;1.792;27.392;1.3;-5.0;184.7;34.9;12;2025-05-13;13:06:46;51.935.516;4.194.790;-11.945.229.492;-6.901.208.496;4.1;0.00;28.93;6.93;27.0;396.00;395.00;395.00;396.00;
161994;101889;-46.89;31.8;1.044;-0.603;-10.439;0.023;-0.077;-0.014;27.691;1.792;27.392;1.3;-5.0;184.6;34.9;12;2025-05-13;13:06:46;51.935.516;4.194.790;-11.945.229.492;-6.901.208.496;4.1;0.00;28.93;6.93;27.0;396.00;395.00;395.00;396.00;
162094;101889;-46.92;31.8;0.881;-0.532;-10.314;0.021;-0.074;-0.013;27.691;1.792;27.392;1.3;-5.0;184.6;34.9;12;2025-05-13;13:06:46;51.935.516;4.194.790;-11.945.229.492;-6.901.208.496;4.1;0.00;31.04;7.18;27.0;396.00;395.00;395.00;396.00;
162194;101893;-47.23;31.8;0.867;-0.464;-10.434;0.023;-0.052;-0.012;27.691;1.792;27.392;1.3;-5.0;184.5;34.9;12;2025-05-13;13:06:47;51.935.516;4.194.790;-11.945.229.492;-6.901.171.387;4.1;0.00;25.78;6.54;27.0;396.00;395.00;395.00;396.00;
162294;101891;-47.01;31.8;1.010;-0.498;-10.463;0.021;-0.052;-0.006;27.691;1.792;27.392;1.3;-5.0;184.4;34.9;12;2025-05-13;13:06:47;51.935.516;4.194.790;-11.945.229.492;-6.901.171.387;4.1;0.00;36.30;7.77;27.0;396.00;395.00;395.00;396.00;
162394;101889;-46.89;31.8;1.053;-0.546;-10.420;0.017;-0.083;-0.022;27.691;1.792;27.392;1.4;-5.0;184.4;34.9;12;2025-05-13;13:06:47;51.935.516;4.194.790;-11.945.229.492;-6.901.171.387;4.1;0.00;28.93;6.93;27.0;396.00;395.00;395.00;396.00;
162494;101890;-47.01;31.8;0.589;-0.512;-10.496;0.022;-0.059;-0.006;27.691;1.792;27.392;1.4;-4.9;184.3;34.9;12;2025-05-13;13:06:47;51.935.516;4.194.790;-11.945.229.492;-6.901.171.387;4.1;0.00;33.14;7.42;27.0;396.00;395.00;395.00;396.00;
162594;101889;-46.91;31.8;1.245;-0.522;-10.391;0.019;-0.061;-0.011;27.691;1.792;27.392;1.4;-5.0;184.2;34.9;12;2025-05-13;13:06:47;51.935.516;4.194.790;-11.945.229.492;-6.901.171.387;4.1;0.00;36.30;7.77;27.0;396.00;395.00;395.00;396.00;
162694;101892;-47.12;31.8;0.771;-0.488;-10.463;0.021;-0.071;-0.021;27.691;1.792;27.392;1.4;-5.0;184.2;34.8;12;2025-05-13;13:06:47;51.935.516;4.194.790;-11.945.229.492;-6.901.171.387;4.1;0.00;36.30;7.77;27.0;396.00;395.00;395.00;396.00;
162794;101891;-47.02;31.8;0.790;-0.690;-10.573;0.021;-0.053;-0.011;27.691;1.792;27.392;1.5;-4.9;184.1;34.9;12;2025-05-13;13:06:47;51.935.516;4.194.790;-11.945.229.492;-6.901.171.387;4.1;0.00;31.04;7.18;27.0;396.00;395.00;395.00;396.00;
162894;101892;-47.15;31.8;1.063;-0.517;-10.295;0.022;-0.058;-0.004;29.489;2.151;27.392;1.5;-5.0;184.1;34.9;12;2025-05-13;13:06:47;51.935.516;4.194.790;-11.945.229.492;-6.901.171.387;4.1;0.00;25.78;6.54;27.0;396.00;395.00;395.00;396.00;
162994;101891;-47.03;31.8;0.958;-0.551;-10.147;0.018;-0.069;-0.015;27.870;-43.551;27.912;0.6;-5.5;182.1;34.9;12;2025-05-13;13:06:47;51.935.516;4.194.790;-11.945.229.492;-6.901.171.387;4.1;0.00;33.14;7.42;27.0;396.00;395.00;395.00;396.00;
163094;101892;-47.15;31.8;0.891;-0.445;-10.391;0.019;-0.060;-0.011;27.870;-43.551;27.912;-0.2;-5.9;180.2;34.9;12;2025-05-13;13:06:47;51.935.516;4.194.790;-11.945.229.492;-6.901.171.387;4.1;0.00;33.14;7.42;27.0;396.00;395.00;395.00;396.00;
163194;101892;-47.13;31.8;1.259;-0.608;-10.377;0.025;-0.067;-0.017;27.870;-43.551;27.912;-0.9;-6.4;178.3;34.9;12;2025-05-13;13:06:48;51.935.520;4.194.789;-11.945.263.672;-6.901.152.832;4.1;0.00;31.04;7.18;27.0;396.00;395.00;395.00;396.00;
163294;101890;-47.01;31.8;0.642;-0.479;-10.372;0.020;-0.074;-0.013;27.870;-43.551;27.912;-1.6;-6.8;176.6;34.9;12;2025-05-13;13:06:48;51.935.520;4.194.789;-11.945.263.672;-6.901.152.832;4.1;0.00;31.04;7.18;27.0;396.00;395.00;395.00;396.00;
163394;101890;-47.00;31.8;1.307;-0.527;-10.410;0.019;-0.052;-0.009;27.870;-43.551;27.912;-2.2;-7.3;174.9;34.9;12;2025-05-13;13:06:48;51.935.520;4.194.789;-11.945.263.672;-6.901.152.832;4.1;0.00;28.93;6.93;27.0;396.00;395.00;395.00;396.00;
163494;101890;-46.98;31.8;0.800;-0.570;-10.515;0.020;-0.062;-0.019;27.870;-43.551;27.912;-2.8;-7.6;173.2;34.9;12;2025-05-13;13:06:48;51.935.520;4.194.789;-11.945.263.672;-6.901.152.832;4.1;0.00;37.35;7.88;27.0;396.00;395.00;395.00;396.00;
163594;101890;-47.00;31.8;1.159;-0.445;-10.401;0.021;-0.068;-0.010;27.870;-43.551;27.912;-3.3;-8.0;171.6;34.9;12;2025-05-13;13:06:48;51.935.520;4.194.789;-11.945.263.672;-6.901.152.832;4.1;0.00;31.04;7.18;27.0;396.00;395.00;395.00;396.00;
163694;101889;-46.87;31.8;0.991;-0.541;-10.386;0.020;-0.071;-0.012;27.870;-43.551;27.912;-3.7;-8.3;170.1;34.9;12;2025-05-13;13:06:48;51.935.520;4.194.789;-11.945.263.672;-6.901.152.832;4.1;0.00;37.35;7.88;27.0;396.00;395.00;395.00;396.00;
163794;101888;-46.82;31.8;0.895;-0.579;-10.410;0.022;-0.059;-0.013;27.870;-43.551;27.912;-4.1;-8.5;168.6;34.9;12;2025-05-13;13:06:48;51.935.520;4.194.789;-11.945.263.672;-6.901.152.832;4.1;0.00;36.30;7.77;27.0;396.00;395.00;395.00;396.00;
163894;101889;-46.89;31.8;0.828;-0.460;-10.377;0.021;-0.061;-0.012;27.870;-43.551;27.912;-4.4;-8.8;167.1;35.0;12;2025-05-13;13:06:48;51.935.520;4.194.789;-11.945.263.672;-6.901.152.832;4.1;0.00;27.88;6.81;27.0;396.00;395.00;395.00;396.00;
163994;101891;-47.04;31.8;1.001;-0.532;-10.410;0.019;-0.070;-0.012;27.870;-43.551;27.912;-4.7;-9.0;165.7;34.9;12;2025-05-13;13:06:48;51.935.520;4.194.789;-11.945.263.672;-6.901.152.832;4.1;0.00;31.04;7.18;27.0;396.00;395.00;395.00;396.00;
164094;101892;-47.11;31.8;0.934;-0.402;-10.717;0.021;-0.064;-0.012;27.870;-43.551;27.912;-5.0;-9.2;164.4;34.9;12;2025-05-13;13:06:48;51.935.520;4.194.789;-11.945.263.672;-6.901.152.832;4.1;0.00;36.30;7.77;27.0;396.00;395.00;395.00;396.00;
164194;101890;-46.95;31.8;0.900;-0.560;-10.477;0.019;-0.065;-0.009;27.870;-43.551;27.912;-5.2;-9.4;163.1;34.9;12;2025-05-13;13:06:49;51.935.516;4.194.788;-11.945.321.289;-6.901.245.605;4.1;0.00;33.14;7.42;27.0;396.00;395.00;395.00;396.00;
164294;101891;-47.03;31.8;0.728;-0.503;-10.396;0.022;-0.053;-0.016;27.870;-43.551;27.912;-5.4;-9.5;161.8;34.9;12;2025-05-13;13:06:49;51.935.516;4.194.788;-11.945.321.289;-6.901.245.605;4.1;0.00;28.93;6.93;27.0;396.00;395.00;395.00;396.00;
164394;101893;-47.21;31.8;1.063;-0.474;-10.626;0.019;-0.059;-0.016;27.870;-43.551;27.912;-5.5;-9.7;160.6;34.9;12;2025-05-13;13:06:49;51.935.516;4.194.788;-11.945.321.289;-6.901.245.605;3.9;0.00;33.14;7.42;27.0;396.00;395.00;395.00;396.00;
164494;101890;-47.00;31.8;0.919;-0.603;-10.472;0.019;-0.072;-0.015;27.870;-43.551;27.912;-5.6;-9.8;159.5;34.9;12;2025-05-13;13:06:49;51.935.516;4.194.788;-11.945.321.289;-6.901.245.605;3.9;0.00;28.93;6.93;27.0;396.00;395.00;395.00;396.00;
164594;101892;-47.10;31.8;0.900;-0.532;-10.544;0.022;-0.055;-0.014;27.870;-43.551;27.912;-5.7;-9.9;158.3;34.9;12;2025-05-13;13:06:49;51.935.516;4.194.788;-11.945.321.289;-6.901.245.605;3.9;0.00;33.14;7.42;27.0;396.00;395.00;395.00;396.00;
164694;101892;-47.14;31.8;1.001;-0.450;-10.477;0.022;-0.062;-0.014;28.770;1.792;26.699;-4.6;-9.6;159.1;34.9;12;2025-05-13;13:06:49;51.935.516;4.194.788;-11.945.321.289;-6.901.245.605;3.9;0.00;36.30;7.77;27.0;396.00;395.00;395.00;396.00;
164794;101891;-47.08;31.8;0.934;-0.508;-10.487;0.021;-0.076;-0.016;28.050;1.434;27.392;-3.6;-9.3;159.9;34.9;12;2025-05-13;13:06:49;51.935.516;4.194.788;-11.945.321.289;-6.901.245.605;3.9;0.00;36.30;7.77;27.0;396.00;395.00;395.00;396.00;
164894;101893;-47.19;31.8;0.948;-0.488;-10.496;0.025;-0.056;-0.004;28.050;1.434;27.392;-2.7;-9.1;160.6;34.9;12;2025-05-13;13:06:49;51.935.516;4.194.788;-11.945.321.289;-6.901.245.605;3.9;0.00;31.04;7.18;27.0;396.00;395.00;395.00;396.00;
164994;101892;-47.10;31.8;0.378;-0.551;-10.530;0.018;-0.060;-0.016;28.050;1.434;27.392;-1.8;-8.6;161.2;34.9;12;2025-05-13;13:06:49;51.935.516;4.194.788;-11.945.321.289;-6.901.245.605;3.9;0.00;33.14;7.42;27.0;396.00;395.00;395.00;396.00;
165094;101893;-47.19;31.8;0.828;-0.728;-10.611;0.017;-0.079;-0.010;28.050;1.434;27.392;-1.0;-8.4;161.8;34.9;12;2025-05-13;13:06:49;51.935.516;4.194.788;-11.945.321.289;-6.901.245.605;3.9;0.00;36.30;7.77;27.0;396.00;395.00;395.00;396.00;
165194;101893;-47.20;31.8;0.872;-0.560;-10.592;0.028;-0.066;-0.009;28.050;1.434;27.392;-0.3;-8.1;162.4;34.9;12;2025-05-13;13:06:50;51.935.516;4.194.788;-11.945.309.570;-6.901.282.715;3.9;0.00;33.14;7.42;27.0;396.00;395.00;395.00;396.00;
165294;101891;-47.09;31.8;1.226;-0.503;-10.310;0.017;-0.062;-0.020;28.050;1.434;27.392;0.4;-8.0;163.0;34.9;12;2025-05-13;13:06:50;51.935.516;4.194.788;-11.945.309.570;-6.901.282.715;3.8;0.00;33.14;7.42;27.0;396.00;395.00;395.00;396.00;
165394;101893;-47.19;31.8;0.441;-0.579;-10.626;0.027;-0.048;-0.016;28.050;1.434;27.392;1.0;-7.6;163.5;34.9;12;2025-05-13;13:06:50;51.935.516;4.194.788;-11.945.309.570;-6.901.282.715;3.8;0.00;33.14;7.42;27.0;396.00;395.00;395.00;396.00;
165494;101892;-47.13;31.8;1.374;-0.508;-10.343;0.018;-0.068;-0.006;28.050;1.434;27.392;1.5;-7.6;164.0;34.9;12;2025-05-13;13:06:50;51.935.516;4.194.788;-11.945.309.570;-6.901.282.715;3.8;0.00;31.04;7.18;27.0;396.00;395.00;395.00;396.00;
165594;101892;-47.16;31.8;0.833;-0.551;-10.415;0.021;-0.065;-0.013;28.050;1.434;27.392;2.0;-7.4;164.5;34.9;12;2025-05-13;13:06:50;51.935.516;4.194.788;-11.945.309.570;-6.901.282.715;3.8;0.00;37.35;7.88;27.0;396.00;395.00;395.00;396.00;
165694;101892;-47.13;31.8;1.101;-0.532;-10.362;0.025;-0.062;-0.010;28.050;1.434;27.392;2.4;-7.2;165.0;34.9;12;2025-05-13;13:06:50;51.935.516;4.194.788;-11.945.309.570;-6.901.282.715;3.8;0.00;33.14;7.42;27.0;396.00;395.00;395.00;396.00;
165794;101894;-47.32;31.8;0.876;-0.594;-10.535;0.021;-0.062;-0.017;28.050;1.434;27.392;2.9;-7.1;165.4;34.9;12;2025-05-13;13:06:50;51.935.516;4.194.788;-11.945.309.570;-6.901.282.715;3.8;0.00;36.30;7.77;27.0;396.00;395.00;395.00;396.00;
165894;101893;-47.26;31.8;0.876;-0.498;-10.396;0.022;-0.066;-0.009;28.050;1.434;27.392;3.2;-6.9;165.8;34.9;12;2025-05-13;13:06:50;51.935.516;4.194.788;-11.945.309.570;-6.901.282.715;3.8;0.00;31.04;7.18;27.0;396.00;395.00;395.00;396.00;
165994;101892;-47.14;31.8;0.900;-0.503;-10.415;0.018;-0.062;-0.004;28.050;1.434;27.392;3.5;-6.8;166.2;34.9;12;2025-05-13;13:06:50;51.935.516;4.194.788;-11.945.309.570;-6.901.282.715;3.8;0.00;39.45;8.10;27.0;396.00;395.00;395.00;396.00;
166094;101893;-47.20;31.8;1.039;-0.608;-10.487;0.021;-0.062;-0.022;28.050;1.434;27.392;3.8;-6.7;166.6;35.0;12;2025-05-13;13:06:50;51.935.516;4.194.788;-11.945.309.570;-6.901.282.715;3.8;0.00;31.04;7.18;27.0;396.00;395.00;395.00;396.00;
166194;101893;-47.23;31.8;0.704;-0.445;-10.209;0.023;-0.062;-0.011;28.050;1.434;27.392;4.1;-6.5;167.0;34.9;12;2025-05-13;13:06:51;51.935.516;4.194.788;-11.945.377.930;-6.901.319.824;3.8;0.00;31.04;7.18;27.0;396.00;395.00;395.00;396.00;
166294;101894;-47.33;31.8;0.982;-0.536;-10.741;0.022;-0.067;-0.011;28.050;1.434;27.392;4.3;-6.4;167.3;34.9;12;2025-05-13;13:06:51;51.935.516;4.194.788;-11.945.377.930;-6.901.319.824;3.8;0.00;28.93;6.93;27.0;396.00;395.00;395.00;396.00;
166394;101893;-47.20;31.8;1.312;-0.378;-10.544;0.028;-0.045;-0.009;28.050;1.434;27.392;4.5;-6.4;167.7;34.9;12;2025-05-13;13:06:51;51.935.516;4.194.788;-11.945.377.930;-6.901.319.824;3.8;0.00;28.93;6.93;27.0;396.00;395.00;395.00;396.00;
166494;101890;-46.98;31.8;1.140;-0.436;-10.420;0.020;-0.066;-0.012;28.050;1.434;27.392;4.6;-6.3;168.0;34.9;12;2025-05-13;13:06:51;51.935.516;4.194.788;-11.945.377.930;-6.901.319.824;3.8;0.00;33.14;7.42;27.0;396.00;395.00;395.00;396.00;
166594;101892;-47.15;31.8;1.087;-0.608;-10.482;0.023;-0.081;-0.015;28.050;1.434;27.392;4.8;-6.3;168.3;35.0;12;2025-05-13;13:06:51;51.935.516;4.194.788;-11.945.377.930;-6.901.319.824;3.8;0.00;39.45;8.10;27.0;396.00;395.00;395.00;396.00;
166694;101892;-47.13;31.8;0.872;-0.426;-10.472;0.022;-0.051;-0.009;27.331;1.434;26.699;5.0;-6.2;168.6;34.9;12;2025-05-13;13:06:51;51.935.516;4.194.788;-11.945.377.930;-6.901.319.824;3.8;0.00;36.30;7.77;27.0;396.00;395.00;395.00;396.00;
166794;101892;-47.12;31.8;1.063;-0.536;-10.492;0.019;-0.065;-0.016;28.949;0.896;28.779;5.1;-6.1;168.9;34.9;12;2025-05-13;13:06:51;51.935.516;4.194.788;-11.945.377.930;-6.901.319.824;3.8;0.00;36.30;7.77;27.0;396.00;395.00;395.00;396.00;
166894;101894;-47.30;31.8;0.982;-0.589;-10.535;0.020;-0.074;-0.010;28.949;0.896;28.779;5.2;-6.0;169.1;34.9;12;2025-05-13;13:06:51;51.935.516;4.194.788;-11.945.377.930;-6.901.319.824;3.8;0.00;36.30;7.77;27.0;396.00;395.00;395.00;396.00;
166994;101891;-47.09;31.8;0.929;-0.508;-10.453;0.025;-0.062;-0.010;28.949;0.896;28.779;5.2;-6.0;169.3;34.9;12;2025-05-13;13:06:51;51.935.516;4.194.788;-11.945.377.930;-6.901.319.824;3.8;0.00;28.93;6.93;27.0;396.00;395.00;395.00;396.00;
167094;101890;-47.02;31.8;0.986;-0.536;-10.377;0.025;-0.056;-0.015;28.949;0.896;28.779;5.3;-5.9;169.5;34.9;12;2025-05-13;13:06:51;51.935.516;4.194.788;-11.945.377.930;-6.901.319.824;3.8;0.00;33.14;7.42;27.0;396.00;395.00;395.00;396.00;
167194;101892;-47.10;31.8;0.881;-0.546;-10.401;0.019;-0.074;-0.009;28.949;0.896;28.779;5.4;-5.8;169.8;34.9;12;2025-05-13;13:06:52;51.935.516;4.194.786;-11.945.515.625;-6.901.468.262;3.8;0.00;31.04;7.18;27.0;396.00;395.00;395.00;396.00;
167294;101890;-46.95;31.8;1.034;-0.560;-10.319;0.019;-0.059;-0.007;28.949;0.896;28.779;5.4;-5.8;170.0;34.9;12;2025-05-13;13:06:52;51.935.516;4.194.786;-11.945.515.625;-6.901.468.262;3.8;0.00;37.35;7.88;27.0;396.00;395.00;395.00;396.00;
167394;101893;-47.19;31.8;0.656;-0.613;-10.501;0.014;-0.054;-0.015;28.949;0.896;28.779;5.5;-5.7;170.2;34.9;12;2025-05-13;13:06:52;51.935.516;4.194.786;-11.945.515.625;-6.901.468.262;3.6;0.00;28.93;6.93;27.0;396.00;395.00;395.00;396.00;
167494;101889;-46.92;31.8;1.298;-0.498;-10.348;0.021;-0.068;-0.011;28.949;0.896;28.779;5.5;-5.7;170.4;34.9;12;2025-05-13;13:06:52;51.935.516;4.194.786;-11.945.515.625;-6.901.468.262;3.6;0.00;33.14;7.42;27.0;396.00;395.00;395.00;396.00;
167594;101888;-46.79;31.8;0.776;-0.532;-10.391;0.023;-0.066;-0.015;28.949;0.896;28.779;5.5;-5.6;170.5;34.9;12;2025-05-13;13:06:52;51.935.516;4.194.786;-11.945.515.625;-6.901.468.262;3.6;0.00;31.04;7.18;27.0;396.00;395.00;395.00;396.00;
167694;101890;-47.00;31.8;1.164;-0.570;-10.549;0.020;-0.054;-0.012;28.949;0.896;28.779;5.6;-5.6;170.7;34.9;12;2025-05-13;13:06:52;51.935.516;4.194.786;-11.945.515.625;-6.901.468.262;3.6;0.00;36.30;7.77;27.0;396.00;395.00;395.00;396.00;
167794;101888;-46.79;31.8;0.953;-0.484;-10.444;0.022;-0.071;-0.015;28.949;0.896;28.779;5.6;-5.6;170.9;34.9;12;2025-05-13;13:06:52;51.935.516;4.194.786;-11.945.515.625;-6.901.468.262;3.6;0.00;28.93;6.93;27.0;396.00;395.00;395.00;396.00;
167894;101891;-47.04;31.8;0.958;-0.522;-10.391;0.020;-0.060;-0.011;28.949;0.896;28.779;5.6;-5.5;171.1;34.9;12;2025-05-13;13:06:52;51.935.516;4.194.786;-11.945.515.625;-6.901.468.262;3.6;0.00;36.30;7.77;27.0;396.00;395.00;395.00;396.00;
167994;101890;-46.97;31.8;0.958;-0.512;-10.515;0.021;-0.063;-0.012;28.949;0.896;28.779;5.6;-5.5;171.2;34.9;12;2025-05-13;13:06:52;51.935.516;4.194.786;-11.945.515.625;-6.901.468.262;3.6;0.00;36.30;7.77;27.0;396.00;395.00;395.00;396.00;
168094;101888;-46.79;31.8;0.939;-0.464;-10.506;0.018;-0.069;-0.007;28.949;0.896;28.779;5.6;-5.5;171.4;34.9;12;2025-05-13;13:06:52;51.935.516;4.194.786;-11.945.515.625;-6.901.468.262;3.6;0.00;28.93;6.93;27.0;396.00;395.00;395.00;396.00;
168194;101890;-47.00;31.8;0.948;-0.383;-10.396;0.028;-0.060;-0.011;28.949;0.896;28.779;5.5;-5.4;171.6;34.9;12;2025-05-13;13:06:53;51.935.513;4.194.784;-11.945.618.164;-6.901.672.363;3.6;0.00;33.14;7.42;27.0;396.00;395.00;395.00;396.00;
168294;101891;-47.07;31.8;0.699;-0.546;-10.578;0.023;-0.050;-0.016;28.949;0.896;28.779;5.5;-5.3;171.7;34.9;12;2025-05-13;13:06:53;51.935.513;4.194.784;-11.945.618.164;-6.901.672.363;3.6;0.00;33.14;7.42;27.0;396.00;395.00;395.00;396.00;
168394;101890;-47.00;31.8;0.426;-0.393;-10.573;0.028;-0.077;-0.005;28.949;0.896;28.779;5.5;-5.2;171.9;34.9;11;2025-05-13;13:06:53;51.935.513;4.194.784;-11.945.618.164;-6.901.672.363;3.5;0.00;31.04;7.18;27.0;396.00;395.00;395.00;396.00;
168494;101890;-47.01;31.8;1.149;-0.637;-10.760;0.021;-0.056;-0.014;27.511;1.255;27.219;5.5;-5.2;172.0;34.9;11;2025-05-13;13:06:53;51.935.513;4.194.784;-11.945.618.164;-6.901.672.363;3.5;0.00;33.14;7.42;27.0;396.00;395.00;395.00;396.00;
168594;101893;-47.18;31.8;0.445;-0.407;-10.559;0.022;-0.083;-0.018;28.949;3.405;27.219;5.6;-5.0;172.3;34.9;11;2025-05-13;13:06:53;51.935.513;4.194.784;-11.945.618.164;-6.901.672.363;3.5;0.00;33.14;7.42;27.0;396.00;395.00;395.00;396.00;
168694;101893;-47.06;31.8;0.824;-0.646;-10.626;0.025;-0.067;-0.004;28.949;3.405;27.219;5.7;-5.0;172.6;34.9;11;2025-05-13;13:06:53;51.935.513;4.194.784;-11.945.618.164;-6.901.672.363;3.5;0.00;33.14;7.42;27.0;396.00;395.00;395.00;396.00;
168794;101891;-47.03;31.8;0.766;-0.441;-10.492;0.019;-0.053;-0.015;28.949;3.405;27.219;5.7;-4.9;172.9;34.9;11;2025-05-13;13:06:53;51.935.513;4.194.784;-11.945.618.164;-6.901.672.363;3.5;0.00;28.93;6.93;27.0;396.00;395.00;395.00;396.00;
168894;101891;-47.03;31.8;0.891;-0.479;-10.439;0.021;-0.049;-0.017;28.949;3.405;27.219;5.8;-4.9;173.1;34.9;11;2025-05-13;13:06:53;51.935.513;4.194.784;-11.945.618.164;-6.901.672.363;3.5;0.00;33.14;7.42;27.0;396.00;395.00;395.00;396.00;
168994;101890;-46.98;31.8;0.757;-0.431;-10.176;0.026;-0.081;-0.011;28.949;3.405;27.219;5.8;-4.9;173.4;34.8;11;2025-05-13;13:06:53;51.935.513;4.194.784;-11.945.618.164;-6.901.672.363;3.5;0.00;33.14;7.42;27.0;396.00;395.00;395.00;396.00;
169094;101890;-47.00;31.8;1.063;-0.512;-10.506;0.022;-0.065;-0.009;28.949;3.405;27.219;5.9;-4.9;173.6;34.9;11;2025-05-13;13:06:53;51.935.513;4.194.784;-11.945.618.164;-6.901.672.363;3.5;0.00;37.35;7.88;27.0;396.00;395.00;395.00;396.00;
169194;101891;-47.03;31.8;0.900;-0.613;-10.511;0.021;-0.062;-0.016;28.949;3.405;27.219;5.9;-4.9;173.8;34.9;11;2025-05-13;13:06:54;51.935.513;4.194.784;-11.945.618.164;-6.901.728.027;3.5;0.00;33.14;7.42;27.0;396.00;395.00;395.00;396.00;
169294;101891;-47.09;31.8;0.982;-0.508;-10.338;0.020;-0.062;-0.011;28.949;3.405;27.219;5.9;-4.9;174.0;34.8;11;2025-05-13;13:06:54;51.935.513;4.194.784;-11.945.618.164;-6.901.728.027;3.5;0.00;31.04;7.18;27.0;396.00;395.00;395.00;396.00;
169394;101892;-47.12;31.8;1.106;-0.570;-10.343;0.023;-0.069;-0.006;28.949;3.405;27.219;6.0;-4.9;174.2;34.9;12;2025-05-13;13:06:54;51.935.513;4.194.784;-11.945.618.164;-6.901.728.027;3.4;0.00;31.04;7.18;27.0;396.00;395.00;395.00;396.00;
169494;101893;-47.22;31.8;0.977;-0.560;-10.329;0.017;-0.067;-0.011;28.949;3.405;27.219;6.0;-4.9;174.5;34.8;12;2025-05-13;13:06:54;51.935.513;4.194.784;-11.945.618.164;-6.901.728.027;3.4;0.00;27.88;6.81;27.0;396.00;395.00;395.00;396.00;
169594;101888;-46.81;31.8;0.986;-0.536;-10.401;0.019;-0.058;-0.018;28.949;3.405;27.219;6.0;-5.0;174.7;34.9;12;2025-05-13;13:06:54;51.935.513;4.194.784;-11.945.618.164;-6.901.728.027;3.4;0.00;36.30;7.77;27.0;396.00;395.00;395.00;396.00;
169694;101891;-47.03;31.8;0.757;-0.522;-10.377;0.021;-0.064;-0.015;28.949;3.405;27.219;6.0;-4.9;174.9;34.9;12;2025-05-13;13:06:54;51.935.513;4.194.784;-11.945.618.164;-6.901.728.027;3.4;0.00;36.30;7.77;27.0;396.00;395.00;395.00;396.00;
169794;101891;-47.02;31.8;1.010;-0.589;-10.401;0.022;-0.072;-0.012;28.949;3.405;27.219;6.0;-4.9;175.0;34.9;12;2025-05-13;13:06:54;51.935.513;4.194.784;-11.945.618.164;-6.901.728.027;3.4;0.00;31.04;7.18;27.0;396.00;395.00;395.00;396.00;
169894;101889;-46.93;31.8;0.800;-0.546;-10.477;0.022;-0.063;-0.010;28.949;3.405;27.219;6.0;-4.9;175.2;34.9;12;2025-05-13;13:06:54;51.935.513;4.194.784;-11.945.618.164;-6.901.728.027;3.4;0.00;36.30;7.77;27.0;396.00;395.00;395.00;396.00;
169994;101891;-47.09;31.8;0.881;-0.603;-10.439;0.025;-0.059;-0.011;28.949;3.405;27.219;6.0;-4.9;175.4;34.9;12;2025-05-13;13:06:54;51.935.513;4.194.784;-11.945.618.164;-6.901.728.027;3.4;0.00;37.35;7.88;27.0;396.00;395.00;395.00;396.00;
170094;101889;-46.88;31.8;0.991;-0.546;-10.410;0.025;-0.067;-0.016;28.949;3.405;27.219;6.0;-4.9;175.6;34.9;12;2025-05-13;13:06:54;51.935.513;4.194.784;-11.945.618.164;-6.901.728.027;3.4;0.00;31.04;7.18;27.0;396.00;395.00;395.00;396.00;
170194;101890;-46.97;31.8;0.972;-0.536;-10.295;0.025;-0.061;-0.013;28.949;3.405;27.219;6.0;-4.9;175.7;34.8;12;2025-05-13;13:06:55;51.935.513;4.194.784;-11.945.640.625;-6.901.728.027;3.4;0.00;37.35;7.88;27.0;396.00;395.00;395.00;396.00;
170294;101892;-47.12;31.8;0.939;-0.627;-10.429;0.023;-0.067;-0.016;28.949;3.405;27.219;6.0;-4.9;175.9;34.9;12;2025-05-13;13:06:55;51.935.513;4.194.784;-11.945.640.625;-6.901.728.027;3.4;0.00;33.14;7.42;27.0;396.00;395.00;395.00;396.00;
170394;101890;-46.94;31.8;0.934;-0.508;-10.506;0.021;-0.072;-0.015;27.331;2.868;25.658;5.9;-4.9;176.0;34.9;12;2025-05-13;13:06:55;51.935.513;4.194.784;-11.945.640.625;-6.901.728.027;3.4;0.00;36.30;7.77;27.0;396.00;395.00;395.00;396.00;
170494;101890;-46.94;31.8;1.058;-0.541;-10.372;0.025;-0.055;-0.010;26.792;-0.358;26.699;5.7;-5.0;176.0;34.9;12;2025-05-13;13:06:55;51.935.513;4.194.784;-11.945.640.625;-6.901.728.027;3.4;0.00;33.14;7.42;27.0;396.00;395.00;395.00;396.00;
170594;101891;-47.02;31.8;0.996;-0.599;-10.535;0.023;-0.061;-0.017;26.792;-0.358;26.699;5.6;-5.0;176.0;34.9;12;2025-05-13;13:06:55;51.935.513;4.194.784;-11.945.640.625;-6.901.728.027;3.4;0.00;36.30;7.77;27.0;396.00;395.00;395.00;396.00;
170694;101890;-46.97;31.8;0.910;-0.579;-10.405;0.022;-0.064;-0.012;26.792;-0.358;26.699;5.4;-5.0;175.9;34.9;12;2025-05-13;13:06:55;51.935.513;4.194.784;-11.945.640.625;-6.901.728.027;3.4;0.00;36.30;7.77;27.0;396.00;395.00;395.00;396.00;
170794;101892;-47.15;31.8;0.891;-0.488;-10.401;0.023;-0.065;-0.009;26.792;-0.358;26.699;5.2;-5.0;175.9;34.9;12;2025-05-13;13:06:55;51.935.513;4.194.784;-11.945.640.625;-6.901.728.027;3.4;0.00;36.30;7.77;27.0;396.00;395.00;395.00;396.00;
170894;101892;-47.15;31.8;1.049;-0.488;-10.410;0.019;-0.062;-0.014;26.792;-0.358;26.699;5.1;-5.0;175.9;34.9;12;2025-05-13;13:06:55;51.935.513;4.194.784;-11.945.640.625;-6.901.728.027;3.4;0.00;33.14;7.42;27.0;396.00;395.00;395.00;396.00;
170994;101890;-47.00;31.8;0.982;-0.508;-10.367;0.021;-0.051;-0.015;26.792;-0.358;26.699;4.9;-5.0;175.8;34.9;12;2025-05-13;13:06:55;51.935.513;4.194.784;-11.945.640.625;-6.901.728.027;3.4;0.00;28.93;6.93;27.0;396.00;395.00;395.00;396.00;
171094;101892;-47.12;31.8;1.030;-0.809;-10.760;0.014;-0.050;-0.019;26.792;-0.358;26.699;4.9;-5.0;175.8;34.9;12;2025-05-13;13:06:55;51.935.513;4.194.784;-11.945.640.625;-6.901.728.027;3.4;0.00;37.35;7.88;27.0;396.00;395.00;395.00;396.00;
171194;101890;-47.01;31.8;0.666;-0.646;-10.137;0.031;-0.061;-0.007;26.792;-0.358;26.699;4.8;-5.0;175.8;34.9;12;2025-05-13;13:06:56;51.935.513;4.194.784;-11.945.629.883;-6.901.765.137;3.4;0.00;31.04;7.18;27.0;396.00;395.00;395.00;396.00;
171294;101886;-46.66;31.8;1.125;-0.594;-10.228;0.021;-0.071;-0.016;26.792;-0.358;26.699;4.7;-5.0;175.8;34.9;12;2025-05-13;13:06:56;51.935.513;4.194.784;-11.945.629.883;-6.901.765.137;3.4;0.00;27.88;6.81;27.0;396.00;395.00;395.00;396.00;
171394;101888;-46.83;31.8;0.852;-0.646;-10.281;0.021;-0.070;-0.011;26.792;-0.358;26.699;4.6;-5.0;175.8;35.0;12;2025-05-13;13:06:56;51.935.513;4.194.784;-11.945.629.883;-6.901.765.137;3.2;0.00;36.30;7.77;27.0;396.00;395.00;395.00;396.00;
171494;101890;-46.94;31.8;1.207;-0.608;-10.334;0.021;-0.056;-0.015;26.792;-0.358;26.699;4.6;-5.1;175.8;35.0;12;2025-05-13;13:06:56;51.935.513;4.194.784;-11.945.629.883;-6.901.765.137;3.2;0.00;33.14;7.42;27.0;396.00;395.00;395.00;396.00;
171594;101889;-46.93;31.8;0.867;-0.546;-10.324;0.023;-0.066;-0.017;26.792;-0.358;26.699;4.5;-5.1;175.7;34.9;12;2025-05-13;13:06:56;51.935.513;4.194.784;-11.945.629.883;-6.901.765.137;3.2;0.00;31.04;7.18;27.0;396.00;395.00;395.00;396.00;
171694;101890;-46.97;31.8;1.034;-0.512;-10.415;0.021;-0.068;-0.014;26.792;-0.358;26.699;4.4;-5.1;175.7;34.9;12;2025-05-13;13:06:56;51.935.513;4.194.784;-11.945.629.883;-6.901.765.137;3.2;0.00;31.04;7.18;27.0;396.00;395.00;395.00;396.00;
171794;101890;-47.01;31.8;0.943;-0.517;-10.429;0.023;-0.060;-0.013;26.792;-0.358;26.699;4.3;-5.1;175.7;34.9;12;2025-05-13;13:06:56;51.935.513;4.194.784;-11.945.629.883;-6.901.765.137;3.2;0.00;33.14;7.42;27.0;396.00;395.00;395.00;396.00;
171894;101888;-46.77;31.8;1.053;-0.541;-10.439;0.022;-0.065;-0.019;26.792;-0.358;26.699;4.2;-5.1;175.7;34.9;12;2025-05-13;13:06:56;51.935.513;4.194.784;-11.945.629.883;-6.901.765.137;3.2;0.00;36.30;7.77;27.0;396.00;395.00;395.00;396.00;
171994;101892;-47.11;31.8;0.915;-0.512;-10.338;0.017;-0.069;-0.012;26.792;-0.358;26.699;4.1;-5.1;175.7;34.9;12;2025-05-13;13:06:56;51.935.513;4.194.784;-11.945.629.883;-6.901.765.137;3.2;0.00;33.14;7.42;27.0;396.00;395.00;395.00;396.00;
172094;101888;-46.82;31.8;0.991;-0.508;-10.338;0.019;-0.066;-0.015;26.792;-0.358;26.699;4.1;-5.1;175.7;34.9;12;2025-05-13;13:06:56;51.935.513;4.194.784;-11.945.629.883;-6.901.765.137;3.2;0.00;33.14;7.42;27.0;396.00;395.00;395.00;396.00;
172194;101888;-46.82;31.8;0.982;-0.555;-10.357;0.023;-0.060;-0.015;26.612;1.792;27.045;4.1;-5.1;175.9;34.9;12;2025-05-13;13:06:57;51.935.513;4.194.784;-11.945.652.344;-6.901.895.020;3.2;0.00;36.30;7.77;27.0;396.00;395.00;395.00;396.00;
172294;101888;-46.77;31.8;0.953;-0.646;-10.391;0.025;-0.069;-0.010;26.612;1.792;27.045;4.2;-5.1;176.0;34.9;12;2025-05-13;13:06:57;51.935.513;4.194.784;-11.945.652.344;-6.901.895.020;3.2;0.00;33.14;7.42;27.0;396.00;395.00;395.00;396.00;
172394;101887;-46.73;31.8;1.015;-0.551;-10.377;0.021;-0.066;-0.012;26.612;1.792;27.045;4.2;-5.1;176.1;34.9;12;2025-05-13;13:06:57;51.935.513;4.194.784;-11.945.652.344;-6.901.895.020;3.1;0.00;33.14;7.42;27.0;396.00;395.00;395.00;396.00;
172494;101888;-46.85;31.8;0.924;-0.532;-10.425;0.021;-0.060;-0.011;26.612;1.792;27.045;4.2;-5.1;176.2;34.9;12;2025-05-13;13:06:57;51.935.513;4.194.784;-11.945.652.344;-6.901.895.020;3.1;0.00;40.51;8.20;27.0;396.00;395.00;395.00;396.00;
172594;101890;-46.97;31.8;0.982;-0.508;-10.448;0.023;-0.066;-0.011;26.612;1.792;27.045;4.3;-5.1;176.3;34.9;12;2025-05-13;13:06:57;51.935.513;4.194.784;-11.945.652.344;-6.901.895.020;3.1;0.00;36.30;7.77;27.0;396.00;395.00;395.00;396.00;
172694;101886;-46.68;31.8;1.034;-0.675;-10.606;0.021;-0.061;-0.014;26.612;1.792;27.045;4.3;-5.1;176.4;34.9;12;2025-05-13;13:06:57;51.935.513;4.194.784;-11.945.652.344;-6.901.895.020;3.1;0.00;33.14;7.42;27.0;396.00;395.00;395.00;396.00;
172794;101887;-46.72;31.8;1.030;-0.517;-10.506;0.023;-0.066;-0.011;26.612;1.792;27.045;4.3;-5.1;176.5;34.9;12;2025-05-13;13:06:57;51.935.513;4.194.784;-11.945.652.344;-6.901.895.020;3.1;0.00;37.35;7.88;27.0;396.00;395.00;395.00;396.00;
172894;101891;-47.07;31.8;1.030;-0.517;-10.357;0.020;-0.062;-0.012;26.612;1.792;27.045;4.3;-5.2;176.5;34.9;12;2025-05-13;13:06:57;51.935.513;4.194.784;-11.945.652.344;-6.901.895.020;3.1;0.00;37.35;7.88;27.0;396.00;395.00;395.00;396.00;
172994;101892;-47.17;31.8;0.962;-0.685;-10.472;0.027;-0.061;-0.014;26.612;1.792;27.045;4.4;-5.2;176.6;34.9;12;2025-05-13;13:06:57;51.935.513;4.194.784;-11.945.652.344;-6.901.895.020;3.1;0.00;33.14;7.42;27.0;396.00;395.00;395.00;396.00;
173094;101889;-46.89;31.8;1.058;-0.445;-10.386;0.022;-0.062;-0.014;26.612;1.792;27.045;4.3;-5.2;176.7;34.9;12;2025-05-13;13:06:57;51.935.513;4.194.784;-11.945.652.344;-6.901.895.020;3.1;0.00;36.30;7.77;27.0;396.00;395.00;395.00;396.00;
173194;101891;-47.07;31.8;0.895;-0.589;-10.511;0.020;-0.064;-0.014;26.612;1.792;27.045;4.4;-5.2;176.8;35.0;12;2025-05-13;13:06:58;51.935.513;4.194.784;-11.945.618.164;-6.901.932.129;3.1;0.00;33.14;7.42;27.0;396.00;395.00;395.00;396.00;
173294;101889;-46.93;31.8;0.967;-0.570;-10.401;0.023;-0.064;-0.011;26.612;1.792;27.045;4.4;-5.2;176.9;34.9;12;2025-05-13;13:06:58;51.935.513;4.194.784;-11.945.618.164;-6.901.932.129;3.1;0.00;33.14;7.42;27.0;396.00;395.00;395.00;396.00;
173394;101889;-46.88;31.8;0.948;-0.584;-10.420;0.018;-0.061;-0.017;26.612;1.792;27.045;4.4;-5.2;176.9;34.9;12;2025-05-13;13:06:58;51.935.513;4.194.784;-11.945.618.164;-6.901.932.129;3.0;0.00;33.14;7.42;27.0;396.00;395.00;395.00;396.00;
173494;101889;-46.92;31.8;0.939;-0.546;-10.434;0.021;-0.065;-0.014;26.612;1.792;27.045;4.4;-5.1;177.0;34.9;12;2025-05-13;13:06:58;51.935.513;4.194.784;-11.945.618.164;-6.901.932.129;3.0;0.00;36.30;7.77;27.0;396.00;395.00;395.00;396.00;
173594;101891;-47.09;31.8;0.977;-0.527;-10.453;0.019;-0.064;-0.012;26.612;1.792;27.045;4.4;-5.1;177.1;35.0;12;2025-05-13;13:06:58;51.935.513;4.194.784;-11.945.618.164;-6.901.932.129;3.0;0.00;33.14;7.42;27.0;396.00;395.00;395.00;396.00;
173694;101890;-46.98;31.8;0.967;-0.469;-10.405;0.019;-0.062;-0.011;26.612;1.792;27.045;4.3;-5.1;177.2;34.9;12;2025-05-13;13:06:58;51.935.513;4.194.784;-11.945.618.164;-6.901.932.129;3.0;0.00;28.93;6.93;27.0;396.00;395.00;395.00;396.00;
173794;101890;-47.01;31.8;0.991;-0.512;-10.458;0.021;-0.063;-0.014;26.612;1.792;27.045;4.3;-5.2;177.2;35.0;12;2025-05-13;13:06:58;51.935.513;4.194.784;-11.945.618.164;-6.901.932.129;3.0;0.00;33.14;7.42;27.0;396.00;395.00;395.00;396.00;
173894;101892;-47.11;31.8;1.030;-0.594;-10.568;0.021;-0.065;-0.015;26.612;1.792;27.045;4.3;-5.2;177.3;34.9;12;2025-05-13;13:06:58;51.935.513;4.194.784;-11.945.618.164;-6.901.932.129;3.0;0.00;36.30;7.77;27.0;396.00;395.00;395.00;396.00;
173994;101889;-46.93;31.8;0.991;-0.517;-10.482;0.020;-0.065;-0.013;26.612;1.792;27.045;4.3;-5.2;177.4;34.9;12;2025-05-13;13:06:58;51.935.513;4.194.784;-11.945.618.164;-6.901.932.129;3.0;0.00;31.04;7.18;27.0;396.00;395.00;395.00;396.00;
174094;101891;-47.04;31.8;0.967;-0.503;-10.525;0.023;-0.063;-0.011;26.612;1.792;27.045;4.3;-5.2;177.4;34.9;12;2025-05-13;13:06:58;51.935.513;4.194.784;-11.945.618.164;-6.901.932.129;3.0;0.00;31.04;7.18;27.0;396.00;395.00;395.00;396.00;
174194;101891;-47.07;31.8;0.919;-0.522;-10.434;0.021;-0.063;-0.010;28.949;2.688;26.525;4.3;-5.1;177.6;35.0;12;2025-05-13;13:06:59;51.935.513;4.194.784;-11.945.652.344;-6.901.987.793;3.0;0.00;33.14;7.42;27.0;396.00;395.00;395.00;396.00;
174294;101892;-47.15;31.8;0.967;-0.541;-10.401;0.018;-0.064;-0.012;26.792;-0.358;28.432;4.2;-5.2;177.5;34.9;12;2025-05-13;13:06:59;51.935.513;4.194.784;-11.945.652.344;-6.901.987.793;3.0;0.00;36.30;7.77;27.0;396.00;395.00;395.00;396.00;
174394;101892;-47.17;31.8;0.919;-0.522;-10.405;0.020;-0.068;-0.014;26.792;-0.358;28.432;4.1;-5.1;177.5;34.9;12;2025-05-13;13:06:59;51.935.513;4.194.784;-11.945.652.344;-6.901.987.793;2.9;0.00;36.30;7.77;27.0;396.00;395.00;395.00;396.00;
174494;101892;-47.14;31.8;1.025;-0.603;-10.415;0.022;-0.063;-0.010;26.792;-0.358;28.432;4.0;-5.2;177.4;35.0;12;2025-05-13;13:06:59;51.935.513;4.194.784;-11.945.652.344;-6.901.987.793;2.9;0.00;37.35;7.88;27.0;396.00;395.00;395.00;396.00;
174594;101890;-47.01;31.8;0.967;-0.632;-10.463;0.023;-0.058;-0.014;26.792;-0.358;28.432;3.9;-5.2;177.4;35.0;12;2025-05-13;13:06:59;51.935.513;4.194.784;-11.945.652.344;-6.901.987.793;2.9;0.00;28.93;6.93;27.0;396.00;395.00;395.00;396.00;
174694;101890;-47.00;31.8;1.044;-0.551;-10.401;0.020;-0.063;-0.016;26.792;-0.358;28.432;3.8;-5.2;177.3;35.0;12;2025-05-13;13:06:59;51.935.513;4.194.784;-11.945.652.344;-6.901.987.793;2.9;0.00;37.35;7.88;27.0;396.00;395.00;395.00;396.00;
174794;101893;-47.25;31.8;1.010;-0.527;-10.444;0.017;-0.064;-0.013;26.792;-0.358;28.432;3.7;-5.2;177.3;35.0;12;2025-05-13;13:06:59;51.935.513;4.194.784;-11.945.652.344;-6.901.987.793;2.9;0.00;40.51;8.20;27.0;396.00;395.00;395.00;396.00;
174894;101889;-46.90;31.8;0.967;-0.517;-10.425;0.020;-0.064;-0.012;26.792;-0.358;28.432;3.6;-5.2;177.2;34.9;12;2025-05-13;13:06:59;51.935.513;4.194.784;-11.945.652.344;-6.901.987.793;2.9;0.00;36.30;7.77;27.0;396.00;395.00;395.00;396.00;
174994;101890;-47.02;31.8;1.001;-0.555;-10.353;0.020;-0.063;-0.013;26.792;-0.358;28.432;3.6;-5.2;177.2;35.0;12;2025-05-13;13:06:59;51.935.513;4.194.784;-11.945.652.344;-6.901.987.793;2.9;0.00;31.04;7.18;27.0;396.00;395.00;395.00;396.00;
175094;101892;-47.10;31.9;0.958;-0.532;-10.592;0.021;-0.065;-0.012;26.792;-0.358;28.432;3.5;-5.2;177.2;35.0;12;2025-05-13;13:06:59;51.935.513;4.194.784;-11.945.652.344;-6.901.987.793;2.9;0.00;31.04;7.18;27.0;396.00;395.00;395.00;396.00;
175194;101894;-47.29;31.9;0.962;-0.517;-10.539;0.022;-0.065;-0.011;26.792;-0.358;28.432;3.4;-5.2;177.2;34.9;12;2025-05-13;13:07:00;51.935.513;4.194.785;-11.945.549.805;-6.902.006.348;2.9;0.00;31.04;7.18;27.0;396.00;395.00;395.00;396.00;
175294;101893;-47.19;31.9;0.943;-0.464;-10.290;0.020;-0.065;-0.011;26.792;-0.358;28.432;3.4;-5.2;177.1;34.9;12;2025-05-13;13:07:00;51.935.513;4.194.785;-11.945.549.805;-6.902.006.348;2.9;0.00;37.35;7.88;27.0;396.00;395.00;395.00;396.00;
175394;101892;-47.11;31.9;0.977;-0.532;-10.444;0.021;-0.064;-0.013;26.792;-0.358;28.432;3.3;-5.2;177.1;35.0;12;2025-05-13;13:07:00;51.935.513;4.194.785;-11.945.549.805;-6.902.006.348;3.0;0.00;33.14;7.42;27.0;396.00;395.00;395.00;396.00;
175494;101892;-47.13;31.9;0.977;-0.555;-10.583;0.019;-0.065;-0.014;26.792;-0.358;28.432;3.3;-5.2;177.1;34.9;12;2025-05-13;13:07:00;51.935.513;4.194.785;-11.945.549.805;-6.902.006.348;3.0;0.00;33.14;7.42;27.0;396.00;395.00;395.00;396.00;
175594;101893;-47.22;31.9;1.034;-0.608;-10.535;0.020;-0.062;-0.011;26.792;-0.358;28.432;3.3;-5.2;177.1;34.9;12;2025-05-13;13:07:00;51.935.513;4.194.785;-11.945.549.805;-6.902.006.348;3.0;0.00;36.30;7.77;27.0;396.00;395.00;395.00;396.00;
175694;101892;-47.10;31.9;0.900;-0.488;-10.434;0.022;-0.063;-0.018;26.792;-0.358;28.432;3.2;-5.2;177.0;34.9;12;2025-05-13;13:07:00;51.935.513;4.194.785;-11.945.549.805;-6.902.006.348;3.0;0.00;36.30;7.77;27.0;396.00;395.00;395.00;396.00;
175794;101891;-47.09;31.8;1.044;-0.551;-10.377;0.019;-0.064;-0.010;26.792;-0.358;28.432;3.2;-5.2;177.0;35.0;12;2025-05-13;13:07:00;51.935.513;4.194.785;-11.945.549.805;-6.902.006.348;3.0;0.00;31.04;7.18;27.0;396.00;395.00;395.00;396.00;
175894;101893;-47.25;31.9;0.982;-0.579;-10.468;0.018;-0.065;-0.013;26.792;-0.358;28.432;3.2;-5.2;177.0;34.9;12;2025-05-13;13:07:00;51.935.513;4.194.785;-11.945.549.805;-6.902.006.348;3.0;0.00;31.04;7.18;27.0;396.00;395.00;395.00;396.00;
175994;101890;-46.94;31.9;0.982;-0.565;-10.386;0.023;-0.064;-0.015;27.511;1.613;26.872;3.2;-5.2;177.1;34.9;12;2025-05-13;13:07:00;51.935.513;4.194.785;-11.945.549.805;-6.902.006.348;3.0;0.00;37.35;7.88;27.0;396.00;395.00;395.00;396.00;
176094;101893;-47.21;31.9;1.001;-0.498;-10.444;0.021;-0.062;-0.013;28.230;3.405;26.525;3.4;-5.2;177.3;35.0;12;2025-05-13;13:07:00;51.935.513;4.194.785;-11.945.549.805;-6.902.006.348;3.0;0.00;33.14;7.42;27.0;396.00;395.00;395.00;396.00;
176194;101894;-47.30;31.9;1.025;-0.512;-10.463;0.017;-0.058;-0.012;28.230;3.405;26.525;3.5;-5.2;177.5;34.9;12;2025-05-13;13:07:01;51.935.509;4.194.786;-11.945.492.187;-6.902.024.902;3.0;0.00;33.14;7.42;27.0;396.00;395.00;395.00;396.00;
176294;101893;-47.21;31.9;0.991;-0.551;-10.415;0.017;-0.064;-0.015;28.230;3.405;26.525;3.6;-5.2;177.6;35.0;12;2025-05-13;13:07:01;51.935.509;4.194.786;-11.945.492.187;-6.902.024.902;3.0;0.00;37.35;7.88;27.0;396.00;395.00;395.00;396.00;
176394;101892;-47.16;31.9;1.097;-0.565;-10.458;0.019;-0.063;-0.013;28.230;3.405;26.525;3.7;-5.3;177.8;35.0;12;2025-05-13;13:07:01;51.935.509;4.194.786;-11.945.492.187;-6.902.024.902;3.1;0.00;33.14;7.42;27.0;396.00;395.00;395.00;396.00;
176494;101895;-47.39;31.9;0.977;-0.479;-10.453;0.021;-0.066;-0.010;28.230;3.405;26.525;3.8;-5.3;178.0;35.0;12;2025-05-13;13:07:01;51.935.509;4.194.786;-11.945.492.187;-6.902.024.902;3.1;0.00;36.30;7.77;27.0;396.00;395.00;395.00;396.00;
176594;101892;-47.17;31.9;0.996;-0.536;-10.439;0.020;-0.064;-0.012;28.230;3.405;26.525;3.9;-5.3;178.1;35.0;12;2025-05-13;13:07:01;51.935.509;4.194.786;-11.945.492.187;-6.902.024.902;3.1;0.00;36.30;7.77;27.0;396.00;395.00;395.00;396.00;
176694;101892;-47.17;31.9;0.977;-0.527;-10.468;0.022;-0.064;-0.014;28.230;3.405;26.525;4.0;-5.3;178.3;35.0;12;2025-05-13;13:07:01;51.935.509;4.194.786;-11.945.492.187;-6.902.024.902;3.1;0.00;37.35;7.88;27.0;396.00;395.00;395.00;396.00;
176794;101893;-47.24;31.9;0.967;-0.522;-10.501;0.022;-0.066;-0.009;28.230;3.405;26.525;4.0;-5.3;178.4;34.9;12;2025-05-13;13:07:01;51.935.509;4.194.786;-11.945.492.187;-6.902.024.902;3.1;0.00;33.14;7.42;27.0;396.00;395.00;395.00;396.00;
176894;101891;-47.05;31.9;0.967;-0.532;-10.468;0.019;-0.066;-0.011;28.230;3.405;26.525;4.1;-5.3;178.5;35.0;12;2025-05-13;13:07:01;51.935.509;4.194.786;-11.945.492.187;-6.902.024.902;3.1;0.00;28.93;6.93;27.0;396.00;395.00;395.00;396.00;
176994;101891;-47.05;31.9;0.900;-0.584;-10.372;0.025;-0.061;-0.019;28.230;3.405;26.525;4.1;-5.2;178.7;35.0;12;2025-05-13;13:07:01;51.935.509;4.194.786;-11.945.492.187;-6.902.024.902;3.1;0.00;33.14;7.42;27.0;396.00;395.00;395.00;396.00;
177094;101893;-47.20;31.9;0.915;-0.603;-10.377;0.019;-0.065;-0.014;28.230;3.405;26.525;4.2;-5.2;178.8;35.0;12;2025-05-13;13:07:01;51.935.509;4.194.786;-11.945.492.187;-6.902.024.902;3.1;0.00;36.30;7.77;27.0;396.00;395.00;395.00;396.00;
177194;101892;-47.12;31.9;0.962;-0.532;-10.482;0.023;-0.065;-0.017;28.230;3.405;26.525;4.2;-5.2;178.9;35.0;12;2025-05-13;13:07:02;51.935.509;4.194.785;-11.945.526.367;-6.902.062.012;3.1;0.00;36.30;7.77;27.0;396.00;395.00;395.00;396.00;
177294;101891;-47.07;31.9;0.967;-0.512;-10.444;0.023;-0.065;-0.009;28.230;3.405;26.525;4.3;-5.2;179.0;35.0;12;2025-05-13;13:07:02;51.935.509;4.194.785;-11.945.526.367;-6.902.062.012;3.1;0.00;31.04;7.18;27.0;396.00;395.00;395.00;396.00;
177394;101889;-46.86;31.9;0.939;-0.522;-10.377;0.020;-0.063;-0.015;28.230;3.405;26.525;4.3;-5.2;179.1;35.0;12;2025-05-13;13:07:02;51.935.509;4.194.785;-11.945.526.367;-6.902.062.012;2.9;0.00;36.30;7.77;27.0;396.00;395.00;395.00;396.00;
177494;101889;-46.93;31.9;1.020;-0.551;-10.468;0.023;-0.063;-0.014;28.230;3.405;26.525;4.3;-5.2;179.2;35.0;12;2025-05-13;13:07:02;51.935.509;4.194.785;-11.945.526.367;-6.902.062.012;2.9;0.00;37.35;7.88;27.0;396.00;395.00;395.00;396.00;
177594;101895;-47.37;31.9;1.001;-0.503;-10.463;0.022;-0.059;-0.012;28.230;3.405;26.525;4.3;-5.2;179.3;35.0;12;2025-05-13;13:07:02;51.935.509;4.194.785;-11.945.526.367;-6.902.062.012;2.9;0.00;40.51;8.20;27.0;396.00;395.00;395.00;396.00;
177694;101894;-47.27;31.9;1.030;-0.512;-10.401;0.022;-0.070;-0.014;28.230;3.405;26.525;4.3;-5.2;179.5;35.0;12;2025-05-13;13:07:02;51.935.509;4.194.785;-11.945.526.367;-6.902.062.012;2.9;0.00;33.14;7.42;27.0;396.00;395.00;395.00;396.00;
177794;101892;-47.16;31.9;0.991;-0.532;-10.458;0.019;-0.068;-0.017;28.230;3.405;26.525;4.3;-5.3;179.5;34.9;12;2025-05-13;13:07:02;51.935.509;4.194.785;-11.945.526.367;-6.902.062.012;2.9;0.00;36.30;7.77;27.0;396.00;395.00;395.00;396.00;
177894;101892;-47.12;31.9;0.967;-0.546;-10.415;0.022;-0.064;-0.014;27.511;1.971;25.832;4.3;-5.2;179.6;35.0;12;2025-05-13;13:07:02;51.935.509;4.194.785;-11.945.526.367;-6.902.062.012;2.9;0.00;37.35;7.88;27.0;396.00;395.00;395.00;396.00;
177994;101895;-47.38;31.9;0.996;-0.589;-10.472;0.017;-0.064;-0.016;27.511;1.971;25.832;4.2;-5.3;179.6;34.9;12;2025-05-13;13:07:02;51.935.509;4.194.785;-11.945.526.367;-6.902.062.012;2.9;0.00;31.04;7.18;27.0;396.00;395.00;395.00;396.00;
178094;101893;-47.20;31.9;0.991;-0.555;-10.444;0.023;-0.066;-0.013;27.511;1.971;25.832;4.2;-5.3;179.6;35.0;12;2025-05-13;13:07:02;51.935.509;4.194.785;-11.945.526.367;-6.902.062.012;2.9;0.00;33.14;7.42;27.0;396.00;395.00;395.00;396.00;
178194;101892;-47.11;31.9;0.862;-0.484;-10.420;0.020;-0.064;-0.014;27.511;1.971;25.832;4.1;-5.2;179.6;34.9;12;2025-05-13;13:07:03;51.935.509;4.194.786;-11.945.515.625;-6.902.099.121;2.9;0.00;33.14;7.42;27.0;396.00;395.00;395.00;396.00;
178294;101893;-47.24;31.9;1.034;-0.517;-10.482;0.022;-0.064;-0.013;27.511;1.971;25.832;4.1;-5.2;179.7;34.9;12;2025-05-13;13:07:03;51.935.509;4.194.786;-11.945.515.625;-6.902.099.121;2.9;0.00;33.14;7.42;27.0;396.00;395.00;395.00;396.00;
178394;101893;-47.21;31.9;0.939;-0.541;-10.472;0.021;-0.064;-0.013;27.511;1.971;25.832;4.0;-5.2;179.7;35.0;12;2025-05-13;13:07:03;51.935.509;4.194.786;-11.945.515.625;-6.902.099.121;2.9;0.00;31.04;7.18;27.0;396.00;395.00;395.00;396.00;
178494;101893;-47.26;31.9;0.982;-0.555;-10.468;0.023;-0.062;-0.014;27.511;1.971;25.832;4.0;-5.2;179.7;35.0;12;2025-05-13;13:07:03;51.935.509;4.194.786;-11.945.515.625;-6.902.099.121;2.9;0.00;36.30;7.77;27.0;396.00;395.00;395.00;396.00;
178594;101893;-47.25;31.9;0.986;-0.527;-10.444;0.022;-0.064;-0.013;27.511;1.971;25.832;4.0;-5.2;179.7;35.0;12;2025-05-13;13:07:03;51.935.509;4.194.786;-11.945.515.625;-6.902.099.121;2.9;0.00;39.45;8.10;27.0;396.00;395.00;395.00;396.00;
178694;101889;-46.88;31.9;0.953;-0.522;-10.463;0.016;-0.063;-0.012;27.511;1.971;25.832;3.9;-5.2;179.8;35.0;12;2025-05-13;13:07:03;51.935.509;4.194.786;-11.945.515.625;-6.902.099.121;2.9;0.00;36.30;7.77;27.0;396.00;395.00;395.00;396.00;
178794;101892;-47.16;31.9;0.991;-0.469;-10.463;0.021;-0.064;-0.011;27.511;1.971;25.832;3.9;-5.2;179.8;35.0;12;2025-05-13;13:07:03;51.935.509;4.194.786;-11.945.515.625;-6.902.099.121;2.9;0.00;37.35;7.88;27.0;396.00;395.00;395.00;396.00;
178894;101891;-47.05;31.9;1.001;-0.493;-10.458;0.021;-0.062;-0.012;27.511;1.971;25.832;3.8;-5.2;179.8;35.0;12;2025-05-13;13:07:03;51.935.509;4.194.786;-11.945.515.625;-6.902.099.121;2.9;0.00;37.35;7.88;27.0;396.00;395.00;395.00;396.00;
178994;101892;-47.15;31.9;1.020;-0.484;-10.444;0.022;-0.062;-0.015;27.511;1.971;25.832;3.8;-5.2;179.8;35.0;12;2025-05-13;13:07:03;51.935.509;4.194.786;-11.945.515.625;-6.902.099.121;2.9;0.00;33.14;7.42;27.0;396.00;395.00;395.00;396.00;
179094;101892;-47.17;31.9;1.034;-0.546;-10.357;0.026;-0.063;-0.011;27.511;1.971;25.832;3.8;-5.3;179.9;35.0;12;2025-05-13;13:07:03;51.935.509;4.194.786;-11.945.515.625;-6.902.099.121;2.9;0.00;37.35;7.88;27.0;396.00;395.00;395.00;396.00;
179194;101890;-47.01;31.9;1.001;-0.536;-10.463;0.023;-0.060;-0.010;27.511;1.971;25.832;3.8;-5.3;179.9;35.0;12;2025-05-13;13:07:04;51.935.509;4.194.788;-11.945.367.188;-6.902.154.785;2.9;0.00;37.35;7.88;27.0;396.00;395.00;395.00;396.00;
179294;101890;-47.01;31.9;0.982;-0.532;-10.453;0.017;-0.062;-0.016;27.511;1.971;25.832;3.7;-5.3;179.9;35.0;12;2025-05-13;13:07:04;51.935.509;4.194.788;-11.945.367.188;-6.902.154.785;2.9;0.00;33.14;7.42;27.0;396.00;395.00;395.00;396.00;
179394;101891;-47.09;31.9;1.010;-0.503;-10.458;0.020;-0.063;-0.011;27.511;1.971;25.832;3.7;-5.3;179.9;35.0;12;2025-05-13;13:07:04;51.935.509;4.194.788;-11.945.367.188;-6.902.154.785;3.1;0.00;36.30;7.77;27.0;396.00;395.00;395.00;396.00;
179494;101889;-46.88;31.9;1.049;-0.464;-10.453;0.021;-0.064;-0.012;27.511;1.971;25.832;3.7;-5.3;180.0;35.0;12;2025-05-13;13:07:04;51.935.509;4.194.788;-11.945.367.188;-6.902.154.785;3.1;0.00;33.14;7.42;27.0;396.00;395.00;395.00;396.00;
179594;101890;-46.96;31.9;1.030;-0.517;-10.463;0.021;-0.062;-0.015;27.151;1.613;27.912;3.6;-5.3;180.0;35.0;12;2025-05-13;13:07:04;51.935.509;4.194.788;-11.945.367.188;-6.902.154.785;3.1;0.00;36.30;7.77;27.0;396.00;395.00;395.00;396.00;
179694;101889;-46.86;31.9;0.934;-0.517;-10.472;0.022;-0.064;-0.011;28.050;3.226;26.699;3.6;-5.3;180.0;35.0;12;2025-05-13;13:07:04;51.935.509;4.194.788;-11.945.367.188;-6.902.154.785;3.1;0.00;33.14;7.42;27.0;396.00;395.00;395.00;396.00;
179794;101893;-47.24;31.9;0.953;-0.527;-10.458;0.021;-0.061;-0.016;28.050;3.226;26.699;3.7;-5.3;180.1;35.0;12;2025-05-13;13:07:04;51.935.509;4.194.788;-11.945.367.188;-6.902.154.785;3.1;0.00;37.35;7.88;27.0;396.00;395.00;395.00;396.00;
179894;101890;-47.01;31.9;0.996;-0.498;-10.477;0.020;-0.066;-0.009;28.050;3.226;26.699;3.7;-5.3;180.2;35.0;12;2025-05-13;13:07:04;51.935.509;4.194.788;-11.945.367.188;-6.902.154.785;3.1;0.00;36.30;7.77;27.0;396.00;395.00;395.00;396.00;
179994;101892;-47.14;31.9;0.939;-0.536;-10.353;0.023;-0.066;-0.014;28.050;3.226;26.699;3.7;-5.3;180.3;35.0;12;2025-05-13;13:07:04;51.935.509;4.194.788;-11.945.367.188;-6.902.154.785;3.1;0.00;36.30;7.77;27.0;396.00;395.00;395.00;396.00;
180094;101893;-47.21;31.9;0.915;-0.512;-10.405;0.023;-0.062;-0.012;28.050;3.226;26.699;3.7;-5.2;180.4;35.0;12;2025-05-13;13:07:04;51.935.509;4.194.788;-11.945.367.188;-6.902.154.785;3.1;0.00;31.04;7.18;27.0;396.00;395.00;395.00;396.00;
180194;101891;-47.05;31.9;0.943;-0.551;-10.448;0.021;-0.065;-0.015;28.050;3.226;26.699;3.8;-5.2;180.4;35.0;12;2025-05-13;13:07:05;51.935.509;4.194.788;-11.945.321.289;-6.902.136.230;3.1;0.00;31.04;7.18;27.0;396.00;395.00;395.00;396.00;
180294;101891;-47.04;31.9;1.034;-0.517;-10.415;0.021;-0.068;-0.020;28.050;3.226;26.699;3.8;-5.3;180.5;35.0;12;2025-05-13;13:07:05;51.935.509;4.194.788;-11.945.321.289;-6.902.136.230;3.1;0.00;27.88;6.81;27.0;396.00;395.00;395.00;396.00;
180394;101891;-47.09;31.9;0.977;-0.555;-10.425;0.022;-0.063;-0.014;28.050;3.226;26.699;3.8;-5.3;180.6;35.0;12;2025-05-13;13:07:05;51.935.509;4.194.788;-11.945.321.289;-6.902.136.230;3.2;0.00;33.14;7.42;27.0;396.00;395.00;395.00;396.00;
180494;101892;-47.11;31.9;0.943;-0.532;-10.477;0.019;-0.061;-0.011;28.050;3.226;26.699;3.8;-5.2;180.7;34.9;12;2025-05-13;13:07:05;51.935.509;4.194.788;-11.945.321.289;-6.902.136.230;3.2;0.00;37.35;7.88;27.0;396.00;395.00;395.00;396.00;
180594;101890;-46.98;31.9;1.025;-0.560;-10.434;0.019;-0.064;-0.012;28.050;3.226;26.699;3.8;-5.3;180.7;35.0;12;2025-05-13;13:07:05;51.935.509;4.194.788;-11.945.321.289;-6.902.136.230;3.2;0.00;28.93;6.93;27.0;396.00;395.00;395.00;396.00;
180694;101891;-47.09;31.9;1.020;-0.522;-10.396;0.021;-0.062;-0.012;28.050;3.226;26.699;3.8;-5.3;180.8;35.0;12;2025-05-13;13:07:05;51.935.509;4.194.788;-11.945.321.289;-6.902.136.230;3.2;0.00;33.14;7.42;27.0;396.00;395.00;395.00;396.00;
180794;101892;-47.18;31.9;1.034;-0.484;-10.506;0.017;-0.062;-0.012;28.050;3.226;26.699;3.8;-5.3;180.8;35.0;12;2025-05-13;13:07:05;51.935.509;4.194.788;-11.945.321.289;-6.902.136.230;3.2;0.00;36.30;7.77;27.0;396.00;395.00;395.00;396.00;
180894;101891;-47.03;31.9;0.962;-0.555;-10.520;0.019;-0.062;-0.012;28.050;3.226;26.699;3.8;-5.3;180.9;34.9;12;2025-05-13;13:07:05;51.935.509;4.194.788;-11.945.321.289;-6.902.136.230;3.2;0.00;36.30;7.77;27.0;396.00;395.00;395.00;396.00;
180994;101891;-47.08;31.9;1.006;-0.527;-10.520;0.019;-0.062;-0.013;28.050;3.226;26.699;3.8;-5.3;181.0;35.0;12;2025-05-13;13:07:05;51.935.509;4.194.788;-11.945.321.289;-6.902.136.230;3.2;0.00;25.78;6.54;27.0;396.00;395.00;395.00;396.00;
181094;101890;-46.94;31.9;0.958;-0.474;-10.468;0.023;-0.064;-0.007;28.050;3.226;26.699;3.8;-5.3;181.0;35.0;12;2025-05-13;13:07:05;51.935.509;4.194.788;-11.945.321.289;-6.902.136.230;3.2;0.00;33.14;7.42;27.0;396.00;395.00;395.00;396.00;
181194;101891;-47.02;31.9;0.967;-0.522;-10.463;0.022;-0.064;-0.015;28.050;3.226;26.699;3.8;-5.3;181.1;34.9;12;2025-05-13;13:07:05;51.935.509;4.194.788;-11.945.321.289;-6.902.136.230;3.2;0.00;36.30;7.77;27.0;396.00;395.00;395.00;396.00;
181294;101894;-47.28;31.9;0.924;-0.512;-10.367;0.022;-0.064;-0.016;28.050;3.226;26.699;3.8;-5.3;181.1;35.0;12;2025-05-13;13:07:06;51.935.509;4.194.788;-11.945.377.930;-6.902.154.785;3.2;0.00;39.45;8.10;27.0;396.00;395.00;395.00;396.00;
181394;101888;-46.82;31.9;0.996;-0.589;-10.506;0.022;-0.066;-0.011;28.050;3.226;26.699;3.8;-5.3;181.2;34.9;12;2025-05-13;13:07:06;51.935.509;4.194.788;-11.945.377.930;-6.902.154.785;3.2;0.00;27.88;6.81;27.0;396.00;395.00;395.00;396.00;
181494;101889;-46.93;31.9;0.991;-0.555;-10.511;0.020;-0.065;-0.013;28.050;3.226;26.699;3.8;-5.3;181.2;35.0;12;2025-05-13;13:07:06;51.935.509;4.194.788;-11.945.377.930;-6.902.154.785;3.2;0.00;33.14;7.42;27.0;396.00;395.00;395.00;396.00;
181594;101888;-46.83;31.9;0.967;-0.479;-10.420;0.020;-0.063;-0.013;28.590;1.255;27.219;3.7;-5.3;181.2;34.9;12;2025-05-13;13:07:06;51.935.509;4.194.788;-11.945.377.930;-6.902.154.785;3.2;0.00;31.04;7.18;27.0;396.00;395.00;395.00;396.00;
181694;101888;-46.80;31.9;0.953;-0.503;-10.515;0.021;-0.067;-0.011;28.230;-43.193;27.045;2.8;-5.7;179.2;35.0;12;2025-05-13;13:07:06;51.935.509;4.194.788;-11.945.377.930;-6.902.154.785;3.2;0.00;33.14;7.42;27.0;396.00;395.00;395.00;396.00;
181794;101891;-47.05;31.9;0.919;-0.613;-10.487;0.021;-0.065;-0.015;28.230;-43.193;27.045;2.0;-6.1;177.2;35.0;12;2025-05-13;13:07:06;51.935.509;4.194.788;-11.945.377.930;-6.902.154.785;3.2;0.00;36.30;7.77;27.0;396.00;395.00;395.00;396.00;
181894;101890;-47.00;31.9;1.020;-0.522;-10.448;0.020;-0.063;-0.015;28.230;-43.193;27.045;1.3;-6.5;175.4;35.0;12;2025-05-13;13:07:06;51.935.509;4.194.788;-11.945.377.930;-6.902.154.785;3.2;0.00;36.30;7.77;27.0;396.00;395.00;395.00;396.00;
181994;101890;-47.00;31.9;0.939;-0.512;-10.463;0.019;-0.066;-0.013;28.230;-43.193;27.045;0.6;-6.9;173.6;35.0;12;2025-05-13;13:07:06;51.935.509;4.194.788;-11.945.377.930;-6.902.154.785;3.2;0.00;36.30;7.77;27.0;396.00;395.00;395.00;396.00;
182094;101889;-46.93;31.9;0.962;-0.522;-10.401;0.021;-0.064;-0.012;28.230;-43.193;27.045;0.0;-7.2;171.9;35.0;12;2025-05-13;13:07:06;51.935.509;4.194.788;-11.945.377.930;-6.902.154.785;3.2;0.00;33.14;7.42;27.0;396.00;395.00;395.00;396.00;
182194;101891;-47.06;31.9;0.967;-0.536;-10.415;0.023;-0.062;-0.015;28.230;-43.193;27.045;-0.5;-7.6;170.2;35.0;12;2025-05-13;13:07:07;51.935.509;4.194.789;-11.945.287.109;-6.902.080.566;3.2;0.00;33.14;7.42;27.0;396.00;395.00;395.00;396.00;
182294;101890;-46.98;31.9;0.962;-0.508;-10.396;0.025;-0.064;-0.013;28.230;-43.193;27.045;-1.0;-7.9;168.6;35.0;12;2025-05-13;13:07:07;51.935.509;4.194.789;-11.945.287.109;-6.902.080.566;3.2;0.00;31.04;7.18;27.0;396.00;395.00;395.00;396.00;
182394;101893;-47.24;31.9;0.991;-0.546;-10.377;0.018;-0.065;-0.011;28.230;-43.193;27.045;-1.5;-8.1;167.1;34.9;12;2025-05-13;13:07:07;51.935.509;4.194.789;-11.945.287.109;-6.902.080.566;3.3;0.00;33.14;7.42;27.0;396.00;395.00;395.00;396.00;
182494;101892;-47.17;31.9;1.001;-0.584;-10.391;0.022;-0.064;-0.016;28.230;-43.193;27.045;-1.9;-8.4;165.6;35.0;12;2025-05-13;13:07:07;51.935.509;4.194.789;-11.945.287.109;-6.902.080.566;3.3;0.00;31.04;7.18;27.0;396.00;395.00;395.00;396.00;
182594;101894;-47.28;31.9;0.929;-0.536;-10.367;0.021;-0.060;-0.012;28.230;-43.193;27.045;-2.2;-8.6;164.2;35.0;12;2025-05-13;13:07:07;51.935.509;4.194.789;-11.945.287.109;-6.902.080.566;3.3;0.00;27.88;6.81;27.0;396.00;395.00;395.00;396.00;
182694;101890;-46.97;31.9;0.986;-0.546;-10.396;0.020;-0.063;-0.015;28.230;-43.193;27.045;-2.5;-8.9;162.8;35.0;12;2025-05-13;13:07:07;51.935.509;4.194.789;-11.945.287.109;-6.902.080.566;3.3;0.00;36.30;7.77;27.0;396.00;395.00;395.00;396.00;
182794;101891;-47.04;31.9;0.939;-0.508;-10.386;0.021;-0.063;-0.011;28.230;-43.193;27.045;-2.8;-9.0;161.5;35.0;12;2025-05-13;13:07:07;51.935.509;4.194.789;-11.945.287.109;-6.902.080.566;3.3;0.00;37.35;7.88;27.0;396.00;395.00;395.00;396.00;
182894;101891;-47.07;31.9;0.967;-0.551;-10.429;0.020;-0.064;-0.014;28.230;-43.193;27.045;-3.0;-9.2;160.2;35.0;12;2025-05-13;13:07:07;51.935.509;4.194.789;-11.945.287.109;-6.902.080.566;3.3;0.00;33.14;7.42;27.0;396.00;395.00;395.00;396.00;
182994;101889;-46.87;31.9;0.977;-0.493;-10.401;0.021;-0.063;-0.013;28.230;-43.193;27.045;-3.2;-9.4;159.0;35.0;12;2025-05-13;13:07:07;51.935.509;4.194.789;-11.945.287.109;-6.902.080.566;3.3;0.00;36.30;7.77;27.0;396.00;395.00;395.00;396.00;
183094;101892;-47.15;31.9;0.967;-0.522;-10.429;0.019;-0.061;-0.011;28.230;-43.193;27.045;-3.4;-9.5;157.8;34.9;12;2025-05-13;13:07:07;51.935.509;4.194.789;-11.945.287.109;-6.902.080.566;3.3;0.00;37.35;7.88;27.0;396.00;395.00;395.00;396.00;
183194;101891;-47.04;31.9;0.986;-0.527;-10.396;0.021;-0.062;-0.007;28.230;-43.193;27.045;-3.5;-9.6;156.7;35.0;12;2025-05-13;13:07:08;51.935.509;4.194.790;-11.945.229.492;-6.902.117.676;3.3;0.00;33.14;7.42;27.0;396.00;395.00;395.00;396.00;
183294;101893;-47.25;31.9;0.972;-0.555;-10.472;0.022;-0.066;-0.011;28.230;-43.193;27.045;-3.6;-9.8;155.6;35.0;12;2025-05-13;13:07:08;51.935.509;4.194.790;-11.945.229.492;-6.902.117.676;3.3;0.00;33.14;7.42;27.0;396.00;395.00;395.00;396.00;
183394;101892;-47.16;31.9;0.948;-0.508;-10.477;0.019;-0.065;-0.013;26.792;1.971;27.219;-2.6;-9.4;156.4;35.0;12;2025-05-13;13:07:08;51.935.509;4.194.790;-11.945.229.492;-6.902.117.676;3.3;0.00;31.04;7.18;27.0;396.00;395.00;395.00;396.00;
183494;101893;-47.20;31.9;0.977;-0.551;-10.448;0.020;-0.068;-0.013;27.691;1.792;28.085;-1.6;-9.1;157.2;35.0;12;2025-05-13;13:07:08;51.935.509;4.194.790;-11.945.229.492;-6.902.117.676;3.3;0.00;37.35;7.88;27.0;396.00;395.00;395.00;396.00;
183594;101894;-47.27;31.9;0.953;-0.536;-10.448;0.022;-0.062;-0.015;27.691;1.792;28.085;-0.7;-8.8;157.9;35.0;12;2025-05-13;13:07:08;51.935.509;4.194.790;-11.945.229.492;-6.902.117.676;3.3;0.00;36.30;7.77;27.0;396.00;395.00;395.00;396.00;
183694;101893;-47.21;31.9;0.972;-0.508;-10.425;0.025;-0.062;-0.014;27.691;1.792;28.085;0.1;-8.5;158.6;35.0;12;2025-05-13;13:07:08;51.935.509;4.194.790;-11.945.229.492;-6.902.117.676;3.3;0.00;37.35;7.88;27.0;396.00;395.00;395.00;396.00;
183794;101892;-47.15;31.9;0.953;-0.565;-10.410;0.019;-0.065;-0.013;27.691;1.792;28.085;0.8;-8.3;159.2;35.0;12;2025-05-13;13:07:08;51.935.509;4.194.790;-11.945.229.492;-6.902.117.676;3.3;0.00;31.04;7.18;27.0;396.00;395.00;395.00;396.00;
183894;101891;-47.04;31.9;0.996;-0.536;-10.396;0.027;-0.066;-0.011;27.691;1.792;28.085;1.5;-8.0;159.9;34.9;12;2025-05-13;13:07:08;51.935.509;4.194.790;-11.945.229.492;-6.902.117.676;3.3;0.00;39.45;8.10;27.0;396.00;395.00;395.00;396.00;
183994;101890;-47.01;31.9;1.006;-0.532;-10.448;0.021;-0.064;-0.010;27.691;1.792;28.085;2.1;-7.8;160.5;35.0;12;2025-05-13;13:07:08;51.935.509;4.194.790;-11.945.229.492;-6.902.117.676;3.3;0.00;37.35;7.88;27.0;396.00;395.00;395.00;396.00;
184094;101892;-47.15;31.9;0.958;-0.546;-10.362;0.023;-0.063;-0.013;27.691;1.792;28.085;2.6;-7.6;161.0;35.0;12;2025-05-13;13:07:08;51.935.509;4.194.790;-11.945.229.492;-6.902.117.676;3.3;0.00;36.30;7.77;27.0;396.00;395.00;395.00;396.00;
184194;101891;-47.09;31.9;0.943;-0.551;-10.453;0.018;-0.067;-0.012;27.691;1.792;28.085;3.1;-7.4;161.6;35.0;12;2025-05-13;13:07:09;51.935.509;4.194.789;-11.945.252.930;-6.902.173.340;3.3;0.00;36.30;7.77;27.0;396.00;395.00;395.00;396.00;
184294;101890;-46.95;31.9;0.972;-0.512;-10.492;0.023;-0.063;-0.013;27.691;1.792;28.085;3.6;-7.2;162.1;35.0;12;2025-05-13;13:07:09;51.935.509;4.194.789;-11.945.252.930;-6.902.173.340;3.3;0.00;37.35;7.88;27.0;396.00;395.00;395.00;396.00;
184394;101894;-47.28;31.9;0.962;-0.527;-10.401;0.021;-0.062;-0.016;27.691;1.792;28.085;4.0;-7.1;162.6;35.0;12;2025-05-13;13:07:09;51.935.509;4.194.789;-11.945.252.930;-6.902.173.340;3.3;0.00;37.35;7.88;27.0;396.00;395.00;395.00;396.00;
184494;101889;-46.89;31.9;0.982;-0.532;-10.468;0.021;-0.063;-0.014;27.691;1.792;28.085;4.3;-6.9;163.1;35.0;12;2025-05-13;13:07:09;51.935.509;4.194.789;-11.945.252.930;-6.902.173.340;3.3;0.00;39.45;8.10;27.0;396.00;395.00;395.00;396.00;
184594;101891;-47.03;31.9;1.010;-0.503;-10.410;0.019;-0.062;-0.010;27.691;1.792;28.085;4.7;-6.8;163.5;34.9;12;2025-05-13;13:07:09;51.935.509;4.194.789;-11.945.252.930;-6.902.173.340;3.3;0.00;37.35;7.88;27.0;396.00;395.00;395.00;396.00;
184694;101891;-47.08;31.9;0.962;-0.512;-10.458;0.025;-0.061;-0.012;27.691;1.792;28.085;4.9;-6.6;164.0;34.9;12;2025-05-13;13:07:09;51.935.509;4.194.789;-11.945.252.930;-6.902.173.340;3.3;0.00;40.51;8.20;27.0;396.00;395.00;395.00;396.00;
184794;101891;-47.09;31.9;0.996;-0.517;-10.468;0.021;-0.070;-0.015;27.691;1.792;28.085;5.2;-6.5;164.4;35.0;12;2025-05-13;13:07:09;51.935.509;4.194.789;-11.945.252.930;-6.902.173.340;3.3;0.00;40.51;8.20;27.0;396.00;395.00;395.00;396.00;
184894;101891;-47.04;31.9;0.919;-0.541;-10.429;0.019;-0.062;-0.013;27.691;1.792;28.085;5.4;-6.4;164.8;35.0;12;2025-05-13;13:07:09;51.935.509;4.194.789;-11.945.252.930;-6.902.173.340;3.3;0.00;37.35;7.88;27.0;396.00;395.00;395.00;396.00;
184994;101893;-47.24;31.9;1.006;-0.560;-10.434;0.023;-0.065;-0.014;27.691;1.792;28.085;5.7;-6.3;165.2;35.0;12;2025-05-13;13:07:09;51.935.509;4.194.789;-11.945.252.930;-6.902.173.340;3.3;0.00;33.14;7.42;27.0;396.00;395.00;395.00;396.00;
185094;101892;-47.12;31.9;0.953;-0.551;-10.477;0.019;-0.067;-0.012;27.691;1.792;28.085;5.8;-6.2;165.5;35.0;12;2025-05-13;13:07:09;51.935.509;4.194.789;-11.945.252.930;-6.902.173.340;3.3;0.00;31.04;7.18;27.0;396.00;395.00;395.00;396.00;
185194;101891;-47.05;31.9;1.006;-0.508;-10.425;0.025;-0.059;-0.012;27.691;1.792;28.085;6.0;-6.1;165.9;35.0;12;2025-05-13;13:07:10;51.935.509;4.194.789;-11.945.252.930;-6.902.117.676;3.3;0.00;36.30;7.77;27.0;396.00;395.00;395.00;396.00;
185294;101889;-46.93;31.9;0.996;-0.517;-10.492;0.021;-0.064;-0.011;27.691;1.792;28.085;6.1;-6.0;166.2;35.0;12;2025-05-13;13:07:10;51.935.509;4.194.789;-11.945.252.930;-6.902.117.676;3.3;0.00;39.45;8.10;27.0;396.00;395.00;395.00;396.00;
185394;101889;-46.90;31.9;0.953;-0.579;-10.410;0.023;-0.068;-0.013;28.770;1.792;27.392;6.3;-5.9;166.6;35.0;12;2025-05-13;13:07:10;51.935.509;4.194.789;-11.945.252.930;-6.902.117.676;3.3;0.00;36.30;7.77;27.0;396.00;395.00;395.00;396.00;
185494;101890;-46.94;31.9;1.030;-0.551;-10.415;0.023;-0.061;-0.013;28.410;0.358;27.045;6.3;-5.9;166.9;35.0;12;2025-05-13;13:07:10;51.935.509;4.194.789;-11.945.252.930;-6.902.117.676;3.3;0.00;33.14;7.42;27.0;396.00;395.00;395.00;396.00;
185594;101890;-46.98;31.9;0.934;-0.522;-10.410;0.019;-0.063;-0.012;28.410;0.358;27.045;6.3;-5.8;167.1;35.0;12;2025-05-13;13:07:10;51.935.509;4.194.789;-11.945.252.930;-6.902.117.676;3.3;0.00;36.30;7.77;27.0;396.00;395.00;395.00;396.00;
185694;101891;-47.05;31.9;0.996;-0.541;-10.401;0.020;-0.065;-0.014;28.410;0.358;27.045;6.4;-5.8;167.4;35.0;12;2025-05-13;13:07:10;51.935.509;4.194.789;-11.945.252.930;-6.902.117.676;3.3;0.00;31.04;7.18;27.0;396.00;395.00;395.00;396.00;
185794;101891;-47.04;31.9;0.929;-0.560;-10.487;0.017;-0.066;-0.014;28.410;0.358;27.045;6.4;-5.7;167.6;35.0;12;2025-05-13;13:07:10;51.935.509;4.194.789;-11.945.252.930;-6.902.117.676;3.3;0.00;31.04;7.18;27.0;396.00;395.00;395.00;396.00;
185894;101891;-47.10;31.9;0.943;-0.522;-10.444;0.020;-0.061;-0.012;28.410;0.358;27.045;6.4;-5.6;167.8;35.0;12;2025-05-13;13:07:10;51.935.509;4.194.789;-11.945.252.930;-6.902.117.676;3.3;0.00;31.04;7.18;27.0;396.00;395.00;395.00;396.00;
185994;101893;-47.21;31.9;0.919;-0.527;-10.468;0.017;-0.060;-0.013;28.410;0.358;27.045;6.4;-5.6;168.1;35.0;12;2025-05-13;13:07:10;51.935.509;4.194.789;-11.945.252.930;-6.902.117.676;3.3;0.00;37.35;7.88;27.0;396.00;395.00;395.00;396.00;
186094;101892;-47.18;31.9;0.967;-0.522;-10.477;0.023;-0.064;-0.015;28.410;0.358;27.045;6.4;-5.5;168.3;35.0;12;2025-05-13;13:07:10;51.935.509;4.194.789;-11.945.252.930;-6.902.117.676;3.3;0.00;33.14;7.42;27.0;396.00;395.00;395.00;396.00;
186194;101893;-47.19;31.9;0.924;-0.546;-10.477;0.020;-0.063;-0.010;28.410;0.358;27.045;6.4;-5.5;168.5;34.9;12;2025-05-13;13:07:11;51.935.509;4.194.788;-11.945.333.008;-6.902.173.340;3.3;0.00;37.35;7.88;27.0;396.00;395.00;395.00;396.00;
186294;101889;-46.93;31.9;0.991;-0.532;-10.391;0.018;-0.062;-0.014;28.410;0.358;27.045;6.4;-5.4;168.7;35.0;12;2025-05-13;13:07:11;51.935.509;4.194.788;-11.945.333.008;-6.902.173.340;3.3;0.00;37.35;7.88;27.0;396.00;395.00;395.00;396.00;
186394;101891;-47.07;31.9;0.977;-0.536;-10.477;0.020;-0.065;-0.014;28.410;0.358;27.045;6.4;-5.4;168.9;35.0;12;2025-05-13;13:07:11;51.935.509;4.194.788;-11.945.333.008;-6.902.173.340;3.2;0.00;33.14;7.42;27.0;396.00;395.00;395.00;396.00;
186494;101891;-47.04;31.9;1.010;-0.781;-10.554;0.005;-0.070;-0.048;28.410;0.358;27.045;6.4;-5.4;169.1;35.0;12;2025-05-13;13:07:11;51.935.509;4.194.788;-11.945.333.008;-6.902.173.340;3.2;0.00;42.61;8.41;27.0;396.00;395.00;395.00;396.00;
186594;101891;-47.03;31.9;1.106;-0.134;-9.802;0.025;-0.078;-0.067;28.410;0.358;27.045;6.3;-5.4;169.3;35.0;12;2025-05-13;13:07:11;51.935.509;4.194.788;-11.945.333.008;-6.902.173.340;3.2;0.00;37.35;7.88;27.0;396.00;395.00;395.00;396.00;
186694;101892;-47.14;31.9;-0.048;-0.838;-10.678;0.026;-0.056;-0.009;28.410;0.358;27.045;6.3;-5.1;169.5;35.0;12;2025-05-13;13:07:11;51.935.509;4.194.788;-11.945.333.008;-6.902.173.340;3.2;0.00;36.30;7.77;27.0;396.00;395.00;395.00;396.00;
186794;101890;-47.01;31.9;1.293;-0.306;-10.511;0.023;-0.062;0.018;28.410;0.358;27.045;6.2;-5.2;169.7;35.0;12;2025-05-13;13:07:11;51.935.509;4.194.788;-11.945.333.008;-6.902.173.340;3.2;0.00;37.35;7.88;27.0;396.00;395.00;395.00;396.00;
186894;101892;-47.11;31.9;1.312;-0.642;-10.506;0.021;-0.067;-0.030;28.410;0.358;27.045;6.2;-5.2;169.8;35.0;12;2025-05-13;13:07:11;51.935.509;4.194.788;-11.945.333.008;-6.902.173.340;3.2;0.00;28.93;6.93;27.0;396.00;395.00;395.00;396.00;
186994;101890;-46.94;31.9;0.527;-0.479;-10.238;0.018;-0.070;-0.020;28.410;0.358;27.045;6.2;-5.1;170.0;35.0;12;2025-05-13;13:07:11;51.935.509;4.194.788;-11.945.333.008;-6.902.173.340;3.2;0.00;28.93;6.93;27.0;396.00;395.00;395.00;396.00;
187094;101890;-46.96;31.9;0.833;-0.426;-10.219;0.025;-0.060;0.012;28.410;0.358;27.045;6.1;-5.1;170.2;35.0;12;2025-05-13;13:07:11;51.935.509;4.194.788;-11.945.333.008;-6.902.173.340;3.2;0.00;36.30;7.77;27.0;396.00;395.00;395.00;396.00;
187194;101891;-47.05;31.9;0.953;-0.584;-10.472;0.030;-0.050;0.022;27.331;2.151;24.965;6.2;-5.0;170.5;35.0;12;2025-05-13;13:07:12;51.935.509;4.194.789;-11.945.263.672;-6.902.229.004;3.2;0.00;36.30;7.77;27.0;396.00;395.00;395.00;396.00;
187294;101890;-47.00;31.9;1.441;-0.532;-10.583;0.021;-0.056;-0.004;27.691;2.151;26.699;6.2;-5.2;170.7;35.0;12;2025-05-13;13:07:12;51.935.509;4.194.789;-11.945.263.672;-6.902.229.004;3.2;0.00;33.14;7.42;27.0;396.00;395.00;395.00;396.00;
187394;101892;-47.15;31.9;0.876;-0.512;-10.482;0.021;-0.072;-0.029;27.691;2.151;26.699;6.2;-5.1;170.9;35.0;11;2025-05-13;13:07:12;51.935.509;4.194.789;-11.945.263.672;-6.902.229.004;3.2;0.00;37.35;7.88;27.0;396.00;395.00;395.00;396.00;
187494;101891;-47.04;31.9;0.915;-0.527;-10.405;0.027;-0.066;-0.014;27.691;2.151;26.699;6.3;-5.1;171.2;35.0;11;2025-05-13;13:07:12;51.935.509;4.194.789;-11.945.263.672;-6.902.229.004;3.2;0.00;36.30;7.77;27.0;396.00;395.00;395.00;396.00;
187594;101892;-47.11;31.9;1.015;-0.484;-10.381;0.018;-0.053;-0.005;27.691;2.151;26.699;6.3;-5.1;171.4;35.0;11;2025-05-13;13:07:12;51.935.509;4.194.789;-11.945.263.672;-6.902.229.004;3.2;0.00;39.45;8.10;27.0;396.00;395.00;395.00;396.00;
187694;101892;-47.11;31.9;1.034;-0.555;-10.415;0.020;-0.068;-0.017;27.691;2.151;26.699;6.3;-5.1;171.6;35.0;11;2025-05-13;13:07:12;51.935.509;4.194.789;-11.945.263.672;-6.902.229.004;3.2;0.00;39.45;8.10;27.0;396.00;395.00;395.00;396.00;
187794;101892;-47.11;31.9;0.809;-0.555;-10.396;0.021;-0.064;-0.013;27.691;2.151;26.699;6.3;-5.0;171.8;35.0;11;2025-05-13;13:07:12;51.935.509;4.194.789;-11.945.263.672;-6.902.229.004;3.2;0.00;36.30;7.77;27.0;396.00;395.00;395.00;396.00;
187894;101892;-47.17;31.9;0.958;-0.522;-10.405;0.023;-0.064;-0.007;27.691;2.151;26.699;6.3;-5.0;172.0;35.0;11;2025-05-13;13:07:12;51.935.509;4.194.789;-11.945.263.672;-6.902.229.004;3.2;0.00;37.35;7.88;27.0;396.00;395.00;395.00;396.00;
187994;101892;-47.13;31.9;1.039;-0.532;-10.386;0.022;-0.067;-0.013;27.691;2.151;26.699;6.3;-5.0;172.2;35.0;11;2025-05-13;13:07:12;51.935.509;4.194.789;-11.945.263.672;-6.902.229.004;3.2;0.00;37.35;7.88;27.0;396.00;395.00;395.00;396.00;
188094;101894;-47.33;31.9;0.872;-0.579;-10.468;0.025;-0.066;-0.019;27.691;2.151;26.699;6.3;-5.0;172.4;35.0;11;2025-05-13;13:07:12;51.935.509;4.194.789;-11.945.263.672;-6.902.229.004;3.2;0.00;37.35;7.88;27.0;396.00;395.00;395.00;396.00;
188194;101892;-47.15;31.9;1.121;-0.623;-10.319;0.022;-0.063;-0.017;27.691;2.151;26.699;6.3;-5.1;172.6;35.0;11;2025-05-13;13:07:13;51.935.509;4.194.788;-11.945.367.188;-6.902.358.887;3.2;0.00;28.93;6.93;27.0;396.00;395.00;395.00;396.00;
188294;101893;-47.20;31.9;1.068;-0.441;-10.477;0.019;-0.063;-0.026;27.691;2.151;26.699;6.2;-5.1;172.8;35.0;11;2025-05-13;13:07:13;51.935.509;4.194.788;-11.945.367.188;-6.902.358.887;3.2;0.00;39.45;8.10;27.0;396.00;395.00;395.00;396.00;
188394;101893;-47.23;31.9;0.876;-0.469;-10.645;0.029;-0.058;-0.035;27.691;2.151;26.699;6.2;-5.0;173.0;35.0;12;2025-05-13;13:07:13;51.935.509;4.194.788;-11.945.367.188;-6.902.358.887;2.9;0.00;37.35;7.88;27.0;396.00;395.00;395.00;396.00;
188494;101892;-47.16;31.9;0.862;-0.417;-10.362;0.022;-0.058;-0.022;27.691;2.151;26.699;6.1;-5.0;173.1;35.0;12;2025-05-13;13:07:13;51.935.509;4.194.788;-11.945.367.188;-6.902.358.887;2.9;0.00;39.45;8.10;27.0;396.00;395.00;395.00;396.00;
188594;101895;-47.42;31.9;0.905;-0.618;-10.319;0.026;-0.061;-0.006;27.691;2.151;26.699;6.1;-5.0;173.3;35.0;12;2025-05-13;13:07:13;51.935.509;4.194.788;-11.945.367.188;-6.902.358.887;2.9;0.00;39.45;8.10;27.0;396.00;395.00;395.00;396.00;
188694;101891;-47.02;31.9;1.183;-0.532;-10.492;0.021;-0.067;-0.004;27.691;2.151;26.699;6.1;-5.1;173.5;35.0;12;2025-05-13;13:07:13;51.935.509;4.194.788;-11.945.367.188;-6.902.358.887;2.9;0.00;39.45;8.10;27.0;396.00;395.00;395.00;396.00;
188794;101891;-47.07;31.9;1.087;-0.484;-10.444;0.021;-0.066;-0.018;27.691;2.151;26.699;6.1;-5.1;173.6;35.0;12;2025-05-13;13:07:13;51.935.509;4.194.788;-11.945.367.188;-6.902.358.887;2.9;0.00;36.30;7.77;27.0;396.00;395.00;395.00;396.00;
188894;101892;-47.14;31.9;0.948;-0.512;-10.439;0.017;-0.058;-0.014;27.691;2.151;26.699;6.0;-5.1;173.8;35.0;12;2025-05-13;13:07:13;51.935.509;4.194.788;-11.945.367.188;-6.902.358.887;2.9;0.00;36.30;7.77;27.0;396.00;395.00;395.00;396.00;
188994;101892;-47.17;31.9;1.111;-0.532;-10.463;0.021;-0.061;-0.028;27.691;2.151;26.699;6.0;-5.1;173.9;35.0;12;2025-05-13;13:07:13;51.935.509;4.194.788;-11.945.367.188;-6.902.358.887;2.9;0.00;33.14;7.42;27.0;396.00;395.00;395.00;396.00;
189094;101893;-47.21;31.9;0.800;-0.479;-10.434;0.022;-0.065;-0.017;27.691;2.151;26.699;6.0;-5.1;174.1;35.0;12;2025-05-13;13:07:13;51.935.509;4.194.788;-11.945.367.188;-6.902.358.887;2.9;0.00;36.30;7.77;27.0;396.00;395.00;395.00;396.00;
189194;101890;-46.96;31.9;1.044;-0.570;-10.468;0.021;-0.064;-0.009;28.230;0.717;27.392;5.9;-5.1;174.2;35.0;12;2025-05-13;13:07:14;51.935.509;4.194.786;-11.945.469.727;-6.902.414.551;2.9;0.00;33.14;7.42;27.0;396.00;395.00;395.00;396.00;
189294;101890;-47.00;31.9;1.647;-0.599;-11.191;0.020;-0.049;-0.019;28.230;0.717;27.392;5.8;-5.2;174.2;35.0;12;2025-05-13;13:07:14;51.935.509;4.194.786;-11.945.469.727;-6.902.414.551;2.9;0.00;33.14;7.42;27.0;396.00;395.00;395.00;396.00;
189394;101891;-47.04;31.9;0.795;-0.555;-10.252;0.022;-0.067;-0.003;28.230;0.717;27.392;5.7;-5.2;174.3;35.0;12;2025-05-13;13:07:14;51.935.509;4.194.786;-11.945.469.727;-6.902.414.551;2.7;0.00;31.04;7.18;27.0;396.00;395.00;395.00;396.00;
189494;101891;-47.07;31.9;1.168;-0.584;-10.377;0.022;-0.064;-0.012;28.230;0.717;27.392;5.6;-5.2;174.4;35.0;12;2025-05-13;13:07:14;51.935.509;4.194.786;-11.945.469.727;-6.902.414.551;2.7;0.00;33.14;7.42;27.0;396.00;395.00;395.00;396.00;
189594;101893;-47.20;31.9;1.068;-0.383;-10.290;0.021;-0.094;-0.012;28.230;0.717;27.392;5.5;-5.3;174.4;35.0;12;2025-05-13;13:07:14;51.935.509;4.194.786;-11.945.469.727;-6.902.414.551;2.7;0.00;36.30;7.77;27.0;396.00;395.00;395.00;396.00;
189694;101892;-47.16;31.9;0.800;-0.215;-10.549;0.029;-0.068;-0.012;28.230;0.717;27.392;5.3;-5.2;174.5;35.0;12;2025-05-13;13:07:14;51.935.509;4.194.786;-11.945.469.727;-6.902.414.551;2.7;0.00;36.30;7.77;27.0;396.00;395.00;395.00;396.00;
189794;101886;-46.64;31.9;0.919;-0.010;-11.076;0.038;-0.066;-0.009;28.230;0.717;27.392;5.1;-5.2;174.6;35.0;12;2025-05-13;13:07:14;51.935.509;4.194.786;-11.945.469.727;-6.902.414.551;2.7;0.00;33.14;7.42;27.0;396.00;395.00;395.00;396.00;
189894;101885;-46.58;31.9;0.804;1.049;-10.750;0.014;-0.075;-0.016;28.230;0.717;27.392;4.6;-5.1;174.7;35.0;12;2025-05-13;13:07:14;51.935.509;4.194.786;-11.945.469.727;-6.902.414.551;2.7;0.00;37.35;7.88;27.0;396.00;395.00;395.00;396.00;
189994;101885;-46.60;31.9;1.250;0.321;-12.752;0.012;-0.158;-0.070;28.230;0.717;27.392;4.4;-5.1;174.8;35.0;12;2025-05-13;13:07:14;51.935.509;4.194.786;-11.945.469.727;-6.902.414.551;2.7;0.00;39.45;8.10;27.0;396.00;395.00;395.00;396.00;
190094;101887;-46.69;31.9;1.695;-2.413;-11.526;-0.012;-0.134;-0.111;28.230;0.717;27.392;4.8;-5.3;174.9;35.0;12;2025-05-13;13:07:14;51.935.509;4.194.786;-11.945.469.727;-6.902.414.551;2.7;0.00;45.77;8.72;27.0;396.00;395.00;395.00;396.00;
190194;101893;-47.21;31.9;0.838;-2.140;-10.697;0.072;-0.050;-0.112;28.230;0.717;27.392;5.2;-5.2;174.9;35.0;12;2025-05-13;13:07:15;51.935.509;4.194.787;-11.945.423.828;-6.902.433.105;2.7;0.00;37.35;7.88;27.0;396.00;395.00;395.00;396.00;
190294;101889;-46.86;31.9;0.536;-0.177;-10.171;-0.022;-0.023;-0.050;28.230;0.717;27.392;5.0;-5.1;175.0;35.0;12;2025-05-13;13:07:15;51.935.509;4.194.787;-11.945.423.828;-6.902.433.105;2.7;0.00;40.51;8.20;27.0;396.00;395.00;395.00;396.00;
190394;101889;-46.87;31.9;1.322;0.474;-11.468;0.031;-0.026;-0.010;28.230;0.717;27.392;4.7;-5.2;175.1;35.0;12;2025-05-13;13:07:15;51.935.509;4.194.787;-11.945.423.828;-6.902.433.105;2.7;0.00;39.45;8.10;27.0;396.00;395.00;395.00;396.00;
190494;101890;-46.97;31.9;0.895;-0.713;-10.276;0.019;-0.099;-0.016;28.230;0.717;27.392;4.7;-5.1;175.1;35.0;12;2025-05-13;13:07:15;51.935.509;4.194.787;-11.945.423.828;-6.902.433.105;2.7;0.00;40.51;8.20;27.0;396.00;395.00;395.00;396.00;
190594;101891;-47.08;31.9;1.499;-0.508;-11.081;0.021;-0.091;-0.002;28.230;0.717;27.392;4.7;-5.3;175.2;34.9;12;2025-05-13;13:07:15;51.935.509;4.194.787;-11.945.423.828;-6.902.433.105;2.7;0.00;37.35;7.88;27.0;396.00;395.00;395.00;396.00;
190694;101891;-47.04;31.9;0.857;-0.407;-11.047;0.028;-0.050;-0.015;28.230;0.717;27.392;4.6;-5.2;175.3;35.0;12;2025-05-13;13:07:15;51.935.509;4.194.787;-11.945.423.828;-6.902.433.105;2.7;0.00;45.77;8.72;27.0;396.00;395.00;395.00;396.00;
190794;101891;-47.04;31.9;0.694;-0.436;-9.836;0.030;-0.058;0.009;28.230;0.717;27.392;4.5;-5.1;175.3;35.0;12;2025-05-13;13:07:15;51.935.509;4.194.787;-11.945.423.828;-6.902.433.105;2.7;0.00;40.51;8.20;27.0;396.00;395.00;395.00;396.00;
190894;101890;-47.01;31.9;1.350;-0.670;-10.468;0.020;-0.079;0.010;28.230;0.717;27.392;4.6;-5.2;175.4;35.0;12;2025-05-13;13:07:15;51.935.509;4.194.787;-11.945.423.828;-6.902.433.105;2.7;0.00;39.45;8.10;27.0;396.00;395.00;395.00;396.00;
190994;101892;-47.12;31.9;0.838;-0.412;-10.568;0.021;-0.070;-0.003;27.331;2.868;26.352;4.6;-5.2;175.6;35.0;12;2025-05-13;13:07:15;51.935.509;4.194.787;-11.945.423.828;-6.902.433.105;2.7;0.00;31.04;7.18;27.0;396.00;395.00;395.00;396.00;
191094;101891;-47.02;31.9;0.781;-0.364;-10.343;0.020;-0.063;0.001;28.410;3.943;25.312;4.7;-5.1;175.8;35.0;12;2025-05-13;13:07:15;51.935.509;4.194.787;-11.945.423.828;-6.902.433.105;2.7;0.00;36.30;7.77;27.0;396.00;395.00;395.00;396.00;
191194;101892;-47.10;31.9;1.413;-0.541;-10.568;0.030;-0.051;-0.018;28.410;3.943;25.312;4.8;-5.3;176.1;35.0;12;2025-05-13;13:07:16;51.935.505;4.194.786;-11.945.492.187;-6.902.488.770;2.7;0.00;33.14;7.42;27.0;396.00;395.00;395.00;396.00;
191294;101890;-46.96;31.9;0.977;-0.488;-10.171;0.023;-0.047;-0.020;28.410;3.943;25.312;4.8;-5.3;176.3;35.0;12;2025-05-13;13:07:16;51.935.505;4.194.786;-11.945.492.187;-6.902.488.770;2.7;0.00;31.04;7.18;27.0;396.00;395.00;395.00;396.00;
191394;101889;-46.90;31.9;0.900;-0.488;-10.563;0.021;-0.050;-0.020;28.410;3.943;25.312;4.9;-5.2;176.5;35.0;12;2025-05-13;13:07:16;51.935.505;4.194.786;-11.945.492.187;-6.902.488.770;2.5;0.00;39.45;8.10;27.0;396.00;395.00;395.00;396.00;
191494;101891;-47.03;31.9;0.599;-0.287;-10.041;0.034;-0.061;0.048;28.410;3.943;25.312;4.9;-5.1;176.7;35.0;12;2025-05-13;13:07:16;51.935.505;4.194.786;-11.945.492.187;-6.902.488.770;2.5;0.00;37.35;7.88;27.0;396.00;395.00;395.00;396.00;
191594;101890;-46.96;31.9;1.599;-0.666;-10.621;0.025;-0.072;0.063;28.410;3.943;25.312;5.0;-5.3;176.9;35.0;12;2025-05-13;13:07:16;51.935.505;4.194.786;-11.945.492.187;-6.902.488.770;2.5;0.00;39.45;8.10;27.0;396.00;395.00;395.00;396.00;
191694;101890;-46.97;31.9;1.480;-0.704;-10.496;0.026;-0.095;-0.003;28.410;3.943;25.312;5.1;-5.4;177.1;35.0;12;2025-05-13;13:07:16;51.935.505;4.194.786;-11.945.492.187;-6.902.488.770;2.5;0.00;39.45;8.10;27.0;396.00;395.00;395.00;396.00;
191794;101891;-47.04;31.9;0.709;-0.402;-10.448;0.028;-0.085;-0.045;28.410;3.943;25.312;5.1;-5.3;177.3;35.0;12;2025-05-13;13:07:16;51.935.505;4.194.786;-11.945.492.187;-6.902.488.770;2.5;0.00;39.45;8.10;27.0;396.00;395.00;395.00;396.00;
191894;101891;-47.08;31.9;0.709;-0.579;-10.329;0.020;-0.051;-0.017;28.410;3.943;25.312;5.1;-5.3;177.5;35.0;12;2025-05-13;13:07:16;51.935.505;4.194.786;-11.945.492.187;-6.902.488.770;2.5;0.00;40.51;8.20;27.0;396.00;395.00;395.00;396.00;
191994;101889;-46.89;31.9;0.953;-0.503;-10.391;0.017;-0.056;0.002;28.410;3.943;25.312;5.2;-5.3;177.7;35.0;12;2025-05-13;13:07:16;51.935.505;4.194.786;-11.945.492.187;-6.902.488.770;2.5;0.00;36.30;7.77;27.0;396.00;395.00;395.00;396.00;
192094;101893;-47.21;31.9;1.178;-0.560;-10.468;0.022;-0.071;-0.013;28.410;3.943;25.312;5.2;-5.3;177.9;35.0;12;2025-05-13;13:07:16;51.935.505;4.194.786;-11.945.492.187;-6.902.488.770;2.5;0.00;37.35;7.88;27.0;396.00;395.00;395.00;396.00;
192194;101892;-47.14;31.9;0.886;-0.469;-10.477;0.023;-0.061;-0.018;28.410;3.943;25.312;5.2;-5.3;178.0;35.0;12;2025-05-13;13:07:17;51.935.505;4.194.785;-11.945.583.984;-6.902.507.324;2.5;0.00;43.66;8.52;27.0;396.00;395.00;395.00;396.00;
192294;101892;-47.13;31.9;0.986;-0.560;-10.401;0.022;-0.058;-0.013;28.410;3.943;25.312;5.2;-5.3;178.2;35.0;12;2025-05-13;13:07:17;51.935.505;4.194.785;-11.945.583.984;-6.902.507.324;2.5;0.00;36.30;7.77;27.0;396.00;395.00;395.00;396.00;
192394;101891;-47.09;31.9;1.010;-0.551;-10.386;0.020;-0.063;-0.009;28.410;3.943;25.312;5.2;-5.3;178.3;35.0;12;2025-05-13;13:07:17;51.935.505;4.194.785;-11.945.583.984;-6.902.507.324;2.4;0.00;36.30;7.77;27.0;396.00;395.00;395.00;396.00;
192494;101893;-47.20;31.9;0.991;-0.522;-10.434;0.023;-0.063;-0.015;28.410;3.943;25.312;5.2;-5.3;178.5;35.0;12;2025-05-13;13:07:17;51.935.505;4.194.785;-11.945.583.984;-6.902.507.324;2.4;0.00;33.14;7.42;27.0;396.00;395.00;395.00;396.00;
192594;101890;-46.99;31.9;0.833;-0.584;-10.506;0.022;-0.059;-0.018;28.410;3.943;25.312;5.2;-5.3;178.7;35.0;12;2025-05-13;13:07:17;51.935.505;4.194.785;-11.945.583.984;-6.902.507.324;2.4;0.00;36.30;7.77;27.0;396.00;395.00;395.00;396.00;
192694;101890;-46.95;31.9;0.967;-0.536;-10.348;0.022;-0.062;-0.016;28.410;3.943;25.312;5.2;-5.3;178.8;35.0;12;2025-05-13;13:07:17;51.935.505;4.194.785;-11.945.583.984;-6.902.507.324;2.4;0.00;40.51;8.20;27.0;396.00;395.00;395.00;396.00;
192794;101890;-47.00;31.9;0.915;-0.536;-10.420;0.017;-0.065;-0.009;28.410;3.943;25.312;5.2;-5.2;178.9;35.0;12;2025-05-13;13:07:17;51.935.505;4.194.785;-11.945.583.984;-6.902.507.324;2.4;0.00;45.77;8.72;27.0;396.00;395.00;395.00;396.00;
192894;101892;-47.11;31.9;1.058;-0.532;-10.401;0.022;-0.056;-0.017;26.792;3.047;26.525;5.1;-5.3;179.0;35.0;12;2025-05-13;13:07:17;51.935.505;4.194.785;-11.945.583.984;-6.902.507.324;2.4;0.00;36.30;7.77;27.0;396.00;395.00;395.00;396.00;
192994;101891;-47.03;31.9;0.972;-0.565;-10.425;0.023;-0.066;-0.015;26.792;3.047;26.525;5.1;-5.3;179.1;35.0;12;2025-05-13;13:07:17;51.935.505;4.194.785;-11.945.583.984;-6.902.507.324;2.4;0.00;43.66;8.52;27.0;396.00;395.00;395.00;396.00;
193094;101893;-47.23;31.9;0.962;-0.488;-10.410;0.019;-0.068;-0.012;26.792;3.047;26.525;5.0;-5.3;179.2;35.0;12;2025-05-13;13:07:17;51.935.505;4.194.785;-11.945.583.984;-6.902.507.324;2.4;0.00;42.61;8.41;27.0;396.00;395.00;395.00;396.00;
193194;101891;-47.05;31.9;0.934;-0.565;-10.444;0.020;-0.060;-0.013;26.792;3.047;26.525;5.0;-5.2;179.2;35.0;12;2025-05-13;13:07:18;51.935.505;4.194.782;-11.945.778.320;-6.902.581.543;2.4;0.00;42.61;8.41;27.0;396.00;395.00;395.00;396.00;
193294;101893;-47.24;31.9;0.934;-0.565;-10.444;0.022;-0.066;-0.015;26.792;3.047;26.525;5.0;-5.2;179.3;35.0;12;2025-05-13;13:07:18;51.935.505;4.194.782;-11.945.778.320;-6.902.581.543;2.4;0.00;39.45;8.10;27.0;396.00;395.00;395.00;396.00;
193394;101892;-47.15;31.9;0.953;-0.532;-10.434;0.021;-0.066;-0.013;26.792;3.047;26.525;4.9;-5.2;179.4;35.0;12;2025-05-13;13:07:18;51.935.505;4.194.782;-11.945.778.320;-6.902.581.543;2.2;0.00;37.35;7.88;27.0;396.00;395.00;395.00;396.00;
193494;101889;-46.88;31.9;1.087;-0.560;-10.396;0.019;-0.060;-0.013;26.792;3.047;26.525;4.9;-5.3;179.4;35.0;12;2025-05-13;13:07:18;51.935.505;4.194.782;-11.945.778.320;-6.902.581.543;2.2;0.00;40.51;8.20;27.0;396.00;395.00;395.00;396.00;
193594;101890;-46.98;31.9;1.001;-0.560;-10.458;0.022;-0.063;-0.015;26.792;3.047;26.525;4.8;-5.3;179.5;35.0;12;2025-05-13;13:07:18;51.935.505;4.194.782;-11.945.778.320;-6.902.581.543;2.2;0.00;33.14;7.42;27.0;396.00;395.00;395.00;396.00;
193694;101891;-47.07;31.9;0.948;-0.536;-10.405;0.020;-0.062;-0.013;26.792;3.047;26.525;4.8;-5.2;179.6;35.0;12;2025-05-13;13:07:18;51.935.505;4.194.782;-11.945.778.320;-6.902.581.543;2.2;0.00;37.35;7.88;27.0;396.00;395.00;395.00;396.00;
193794;101891;-47.06;31.9;0.857;-0.555;-10.463;0.026;-0.063;-0.015;26.792;3.047;26.525;4.8;-5.2;179.6;35.0;12;2025-05-13;13:07:18;51.935.505;4.194.782;-11.945.778.320;-6.902.581.543;2.2;0.00;37.35;7.88;27.0;396.00;395.00;395.00;396.00;
193894;101889;-46.89;31.9;1.010;-0.508;-10.482;0.022;-0.063;-0.013;26.792;3.047;26.525;4.7;-5.2;179.7;34.9;12;2025-05-13;13:07:18;51.935.505;4.194.782;-11.945.778.320;-6.902.581.543;2.2;0.00;39.45;8.10;27.0;396.00;395.00;395.00;396.00;
193994;101894;-47.27;31.9;0.958;-0.517;-10.458;0.020;-0.068;-0.015;26.792;3.047;26.525;4.7;-5.2;179.8;35.0;12;2025-05-13;13:07:18;51.935.505;4.194.782;-11.945.778.320;-6.902.581.543;2.2;0.00;39.45;8.10;27.0;396.00;395.00;395.00;396.00;
194094;101893;-47.20;31.9;0.934;-0.536;-10.458;0.019;-0.064;-0.011;26.792;3.047;26.525;4.6;-5.2;179.8;35.1;12;2025-05-13;13:07:18;51.935.505;4.194.782;-11.945.778.320;-6.902.581.543;2.2;0.00;39.45;8.10;27.0;396.00;395.00;395.00;396.00;
194194;101893;-47.26;31.9;1.039;-0.551;-10.425;0.019;-0.060;-0.006;26.792;3.047;26.525;4.6;-5.2;179.9;35.0;12;2025-05-13;13:07:19;51.935.505;4.194.781;-11.945.812.500;-6.902.581.543;2.2;0.00;40.51;8.20;27.0;396.00;395.00;395.00;396.00;
194294;101893;-47.25;31.9;0.996;-0.532;-10.410;0.025;-0.066;-0.014;26.792;3.047;26.525;4.6;-5.2;180.0;35.1;12;2025-05-13;13:07:19;51.935.505;4.194.781;-11.945.812.500;-6.902.581.543;2.2;0.00;39.45;8.10;27.0;396.00;395.00;395.00;396.00;
194394;101891;-47.06;31.9;0.967;-0.532;-10.405;0.026;-0.058;-0.013;26.792;3.047;26.525;4.5;-5.2;180.0;35.0;12;2025-05-13;13:07:19;51.935.505;4.194.781;-11.945.812.500;-6.902.581.543;2.1;0.00;33.14;7.42;27.0;396.00;395.00;395.00;396.00;
194494;101893;-47.21;31.9;1.058;-0.551;-10.420;0.020;-0.068;-0.011;26.792;3.047;26.525;4.5;-5.3;180.1;35.0;12;2025-05-13;13:07:19;51.935.505;4.194.781;-11.945.812.500;-6.902.581.543;2.1;0.00;43.66;8.52;27.0;396.00;395.00;395.00;396.00;
194594;101892;-47.18;31.9;0.934;-0.498;-10.362;0.020;-0.061;-0.015;26.792;3.047;26.525;4.5;-5.2;180.1;35.0;12;2025-05-13;13:07:19;51.935.505;4.194.781;-11.945.812.500;-6.902.581.543;2.1;0.00;39.45;8.10;27.0;396.00;395.00;395.00;396.00;
194694;101891;-47.08;31.9;1.039;-0.532;-10.405;0.021;-0.061;-0.015;28.590;2.330;26.178;4.4;-5.3;180.2;35.0;12;2025-05-13;13:07:19;51.935.505;4.194.781;-11.945.812.500;-6.902.581.543;2.1;0.00;36.30;7.77;27.0;396.00;395.00;395.00;396.00;
194794;101893;-47.21;31.9;0.982;-0.560;-10.429;0.020;-0.065;-0.012;28.590;1.255;26.872;4.3;-5.3;180.1;35.0;12;2025-05-13;13:07:19;51.935.505;4.194.781;-11.945.812.500;-6.902.581.543;2.1;0.00;39.45;8.10;27.0;396.00;395.00;395.00;396.00;
194894;101892;-47.12;31.9;1.039;-0.555;-10.420;0.020;-0.064;-0.009;28.590;1.255;26.872;4.2;-5.3;180.1;35.0;12;2025-05-13;13:07:19;51.935.505;4.194.781;-11.945.812.500;-6.902.581.543;2.1;0.00;36.30;7.77;27.0;396.00;395.00;395.00;396.00;
194994;101892;-47.11;31.9;0.958;-0.493;-10.415;0.022;-0.065;-0.013;28.590;1.255;26.872;4.1;-5.3;180.0;35.0;12;2025-05-13;13:07:19;51.935.505;4.194.781;-11.945.812.500;-6.902.581.543;2.1;0.00;37.35;7.88;27.0;396.00;395.00;395.00;396.00;
195094;101892;-47.12;31.9;0.924;-0.541;-10.396;0.019;-0.065;-0.016;28.590;1.255;26.872;4.0;-5.3;180.0;35.0;12;2025-05-13;13:07:19;51.935.505;4.194.781;-11.945.812.500;-6.902.581.543;2.1;0.00;37.35;7.88;27.0;396.00;395.00;395.00;396.00;
195194;101893;-47.26;31.9;0.939;-0.532;-10.405;0.021;-0.063;-0.011;28.590;1.255;26.872;3.9;-5.2;180.0;35.0;12;2025-05-13;13:07:20;51.935.505;4.194.782;-11.945.744.141;-6.902.525.879;2.1;0.00;40.51;8.20;27.0;396.00;395.00;395.00;396.00;
195294;101894;-47.35;31.9;0.953;-0.546;-10.396;0.019;-0.063;-0.012;28.590;1.255;26.872;3.9;-5.2;180.0;35.0;12;2025-05-13;13:07:20;51.935.505;4.194.782;-11.945.744.141;-6.902.525.879;2.1;0.00;36.30;7.77;27.0;396.00;395.00;395.00;396.00;
195394;101891;-47.09;31.9;0.939;-0.532;-10.396;0.025;-0.069;-0.011;28.590;1.255;26.872;3.8;-5.2;179.9;35.0;12;2025-05-13;13:07:20;51.935.505;4.194.782;-11.945.744.141;-6.902.525.879;2.2;0.00;40.51;8.20;27.0;396.00;395.00;395.00;396.00;
195494;101892;-47.12;31.9;0.991;-0.551;-10.357;0.022;-0.063;-0.011;28.590;1.255;26.872;3.7;-5.2;179.9;35.0;12;2025-05-13;13:07:20;51.935.505;4.194.782;-11.945.744.141;-6.902.525.879;2.2;0.00;39.45;8.10;27.0;396.00;395.00;395.00;396.00;
195594;101892;-47.18;31.9;1.010;-0.551;-10.439;0.017;-0.065;-0.012;28.590;1.255;26.872;3.7;-5.2;179.9;35.0;12;2025-05-13;13:07:20;51.935.505;4.194.782;-11.945.744.141;-6.902.525.879;2.2;0.00;37.35;7.88;27.0;396.00;395.00;395.00;396.00;
195694;101892;-47.15;31.9;1.030;-0.527;-10.410;0.023;-0.061;-0.007;28.590;1.255;26.872;3.6;-5.3;179.9;35.0;12;2025-05-13;13:07:20;51.935.505;4.194.782;-11.945.744.141;-6.902.525.879;2.2;0.00;36.30;7.77;27.0;396.00;395.00;395.00;396.00;
195794;101894;-47.32;31.9;0.986;-0.555;-10.367;0.023;-0.062;-0.013;28.590;1.255;26.872;3.6;-5.3;179.9;35.0;12;2025-05-13;13:07:20;51.935.505;4.194.782;-11.945.744.141;-6.902.525.879;2.2;0.00;40.51;8.20;27.0;396.00;395.00;395.00;396.00;
195894;101893;-47.25;31.9;0.953;-0.536;-10.410;0.022;-0.065;-0.016;28.590;1.255;26.872;3.5;-5.2;179.9;35.0;12;2025-05-13;13:07:20;51.935.505;4.194.782;-11.945.744.141;-6.902.525.879;2.2;0.00;39.45;8.10;27.0;396.00;395.00;395.00;396.00;
195994;101894;-47.22;31.9;0.929;-0.551;-10.448;0.022;-0.064;-0.009;28.590;1.255;26.872;3.5;-5.2;179.8;35.0;12;2025-05-13;13:07:20;51.935.505;4.194.782;-11.945.744.141;-6.902.525.879;2.2;0.00;40.51;8.20;27.0;396.00;395.00;395.00;396.00;
196094;101892;-47.15;31.9;1.010;-0.527;-10.444;0.021;-0.059;-0.014;28.590;1.255;26.872;3.5;-5.2;179.8;34.9;12;2025-05-13;13:07:20;51.935.505;4.194.782;-11.945.744.141;-6.902.525.879;2.2;0.00;39.45;8.10;27.0;396.00;395.00;395.00;396.00;
196194;101894;-47.27;31.9;0.982;-0.484;-10.477;0.020;-0.069;-0.015;28.590;1.255;26.872;3.4;-5.2;179.8;35.0;12;2025-05-13;13:07:21;51.935.505;4.194.783;-11.945.698.242;-6.902.507.324;2.2;0.00;40.51;8.20;27.0;396.00;395.00;395.00;396.00;
196294;101892;-47.14;31.9;0.857;-0.503;-10.329;0.022;-0.076;-0.004;28.590;1.255;26.872;3.4;-5.2;179.8;35.0;12;2025-05-13;13:07:21;51.935.505;4.194.783;-11.945.698.242;-6.902.507.324;2.2;0.00;36.30;7.77;27.0;396.00;395.00;395.00;396.00;
196394;101893;-47.24;31.9;0.838;-0.642;-10.353;0.005;-0.081;-0.002;28.590;1.255;26.872;3.4;-5.2;179.8;35.0;12;2025-05-13;13:07:21;51.935.505;4.194.783;-11.945.698.242;-6.902.507.324;2.3;0.00;33.14;7.42;27.0;396.00;395.00;395.00;396.00;
196494;101895;-47.35;31.9;0.666;-0.589;-10.779;-0.005;-0.135;0.032;28.590;1.255;26.872;3.3;-5.1;179.8;35.0;12;2025-05-13;13:07:21;51.935.505;4.194.783;-11.945.698.242;-6.902.507.324;2.3;0.00;37.35;7.88;27.0;396.00;395.00;395.00;396.00;
196594;101894;-47.34;31.9;0.886;-0.594;-10.118;0.002;-0.135;0.040;28.590;1.255;26.872;3.3;-5.1;179.8;35.0;12;2025-05-13;13:07:21;51.935.505;4.194.783;-11.945.698.242;-6.902.507.324;2.3;0.00;37.35;7.88;27.0;396.00;395.00;395.00;396.00;
196694;101893;-47.23;31.9;1.484;-0.225;-10.334;0.037;-0.036;-0.016;28.590;1.255;26.872;3.2;-5.2;179.8;35.1;12;2025-05-13;13:07:21;51.935.505;4.194.783;-11.945.698.242;-6.902.507.324;2.3;0.00;33.14;7.42;27.0;396.00;395.00;395.00;396.00;
196794;101896;-47.44;31.9;0.919;-0.694;-10.764;0.036;-0.047;-0.055;28.590;1.255;26.872;3.2;-5.2;179.8;35.0;12;2025-05-13;13:07:21;51.935.505;4.194.783;-11.945.698.242;-6.902.507.324;2.3;0.00;37.35;7.88;27.0;396.00;395.00;395.00;396.00;
196894;101894;-47.34;31.9;0.488;-0.484;-10.357;0.025;-0.054;-0.038;28.590;1.255;26.872;3.2;-5.1;179.8;35.0;12;2025-05-13;13:07:21;51.935.505;4.194.783;-11.945.698.242;-6.902.507.324;2.3;0.00;40.51;8.20;27.0;396.00;395.00;395.00;396.00;
196994;101893;-47.24;31.9;0.800;-0.464;-10.180;0.030;-0.035;-0.006;28.590;1.255;26.872;3.2;-5.0;179.8;35.0;12;2025-05-13;13:07:21;51.935.505;4.194.783;-11.945.698.242;-6.902.507.324;2.3;0.00;39.45;8.10;27.0;396.00;395.00;395.00;396.00;
197094;101894;-47.27;31.9;1.073;-0.694;-10.458;0.027;-0.032;-0.015;28.590;1.255;26.872;3.2;-5.1;179.8;35.0;12;2025-05-13;13:07:21;51.935.505;4.194.783;-11.945.698.242;-6.902.507.324;2.3;0.00;39.45;8.10;27.0;396.00;395.00;395.00;396.00;
197194;101893;-47.20;31.9;0.929;-0.397;-10.410;0.025;-0.055;-0.020;28.590;1.255;26.872;3.2;-5.1;179.8;35.0;12;2025-05-13;13:07:22;51.935.505;4.194.782;-11.945.754.883;-6.902.618.652;2.3;0.00;33.14;7.42;27.0;396.00;395.00;395.00;396.00;
197294;101892;-47.15;31.9;0.895;-0.570;-10.434;0.020;-0.070;-0.010;28.590;1.255;26.872;3.1;-5.0;179.8;35.0;12;2025-05-13;13:07:22;51.935.505;4.194.782;-11.945.754.883;-6.902.618.652;2.3;0.00;39.45;8.10;27.0;396.00;395.00;395.00;396.00;
197394;101893;-47.26;31.9;0.996;-0.474;-10.415;0.019;-0.072;-0.010;28.590;1.255;26.872;3.1;-5.1;179.8;35.0;12;2025-05-13;13:07:22;51.935.505;4.194.782;-11.945.754.883;-6.902.618.652;2.0;0.00;33.14;7.42;27.0;396.00;395.00;395.00;396.00;
197494;101893;-47.22;31.9;0.939;-0.536;-10.429;0.023;-0.056;-0.017;28.590;1.255;26.872;3.1;-5.1;179.8;35.0;12;2025-05-13;13:07:22;51.935.505;4.194.782;-11.945.754.883;-6.902.618.652;2.0;0.00;36.30;7.77;27.0;396.00;395.00;395.00;396.00;
197594;101895;-47.36;31.9;0.895;-0.532;-10.448;0.021;-0.062;-0.015;28.590;1.255;26.872;3.1;-5.0;179.8;35.0;12;2025-05-13;13:07:22;51.935.505;4.194.782;-11.945.754.883;-6.902.618.652;2.0;0.00;39.45;8.10;27.0;396.00;395.00;395.00;396.00;
197694;101894;-47.35;31.9;0.962;-0.532;-10.439;0.020;-0.067;-0.007;28.590;1.255;26.872;3.1;-5.0;179.7;35.0;12;2025-05-13;13:07:22;51.935.505;4.194.782;-11.945.754.883;-6.902.618.652;2.0;0.00;39.45;8.10;27.0;396.00;395.00;395.00;396.00;
197794;101893;-47.22;31.9;0.881;-0.522;-10.377;0.023;-0.061;-0.019;28.590;1.255;26.872;3.1;-5.0;179.7;35.0;12;2025-05-13;13:07:22;51.935.505;4.194.782;-11.945.754.883;-6.902.618.652;2.0;0.00;37.35;7.88;27.0;396.00;395.00;395.00;396.00;
197894;101893;-47.22;31.9;0.876;-0.555;-10.439;0.017;-0.059;-0.014;28.590;1.255;26.872;3.1;-5.0;179.7;35.0;12;2025-05-13;13:07:22;51.935.505;4.194.782;-11.945.754.883;-6.902.618.652;2.0;0.00;36.30;7.77;27.0;396.00;395.00;395.00;396.00;
197994;101893;-47.24;31.9;0.900;-0.579;-10.482;0.020;-0.067;-0.006;28.590;1.255;26.872;3.1;-5.0;179.7;35.1;12;2025-05-13;13:07:22;51.935.505;4.194.782;-11.945.754.883;-6.902.618.652;2.0;0.00;36.30;7.77;27.0;396.00;395.00;395.00;396.00;
198094;101894;-47.29;31.9;0.910;-0.512;-10.391;0.022;-0.060;-0.012;28.590;1.255;26.872;3.1;-5.0;179.7;35.0;12;2025-05-13;13:07:22;51.935.505;4.194.782;-11.945.754.883;-6.902.618.652;2.0;0.00;37.35;7.88;27.0;396.00;395.00;395.00;396.00;
198194;101895;-47.42;31.9;0.934;-0.541;-10.439;0.026;-0.059;-0.012;28.590;1.255;26.872;3.1;-5.0;179.7;35.0;12;2025-05-13;13:07:23;51.935.505;4.194.782;-11.945.732.422;-6.902.674.316;2.0;0.00;39.45;8.10;27.0;396.00;395.00;395.00;396.00;
198294;101894;-47.33;31.9;0.939;-0.570;-10.444;0.019;-0.068;-0.011;28.590;1.255;26.872;3.1;-5.0;179.7;35.0;12;2025-05-13;13:07:23;51.935.505;4.194.782;-11.945.732.422;-6.902.674.316;2.0;0.00;37.35;7.88;27.0;396.00;395.00;395.00;396.00;
198394;101894;-47.34;31.9;0.919;-0.565;-10.444;0.020;-0.062;-0.012;28.590;1.255;26.872;3.1;-5.0;179.7;35.1;12;2025-05-13;13:07:23;51.935.505;4.194.782;-11.945.732.422;-6.902.674.316;1.8;0.00;33.14;7.42;27.0;396.00;395.00;395.00;396.00;
198494;101892;-47.17;31.9;0.948;-0.527;-10.372;0.019;-0.062;-0.014;28.590;1.255;26.872;3.1;-5.0;179.7;35.1;12;2025-05-13;13:07:23;51.935.505;4.194.782;-11.945.732.422;-6.902.674.316;1.8;0.00;37.35;7.88;27.0;396.00;395.00;395.00;396.00;
198594;101891;-47.10;31.9;0.900;-0.551;-10.434;0.022;-0.065;-0.013;27.511;1.971;25.485;3.1;-5.0;179.8;35.0;12;2025-05-13;13:07:23;51.935.505;4.194.782;-11.945.732.422;-6.902.674.316;1.8;0.00;39.45;8.10;27.0;396.00;395.00;395.00;396.00;
198694;101892;-47.13;31.9;0.905;-0.517;-10.453;0.022;-0.062;-0.015;28.770;3.226;27.392;3.2;-5.0;179.9;35.0;12;2025-05-13;13:07:23;51.935.505;4.194.782;-11.945.732.422;-6.902.674.316;1.8;0.00;33.14;7.42;27.0;396.00;395.00;395.00;396.00;
198794;101891;-47.08;31.9;0.891;-0.522;-10.482;0.021;-0.059;-0.017;28.770;3.226;27.392;3.2;-5.0;180.0;35.0;12;2025-05-13;13:07:23;51.935.505;4.194.782;-11.945.732.422;-6.902.674.316;1.8;0.00;36.30;7.77;27.0;396.00;395.00;395.00;396.00;
198894;101891;-47.05;31.9;0.881;-0.508;-10.472;0.020;-0.074;-0.009;28.770;3.226;27.392;3.3;-5.0;180.1;35.0;12;2025-05-13;13:07:23;51.935.505;4.194.782;-11.945.732.422;-6.902.674.316;1.8;0.00;27.88;6.81;27.0;396.00;395.00;395.00;396.00;
198994;101893;-47.24;31.9;0.929;-0.560;-10.477;0.022;-0.066;-0.009;28.770;3.226;27.392;3.4;-5.0;180.2;35.1;12;2025-05-13;13:07:23;51.935.505;4.194.782;-11.945.732.422;-6.902.674.316;1.8;0.00;37.35;7.88;27.0;396.00;395.00;395.00;396.00;
199094;101895;-47.38;31.9;0.972;-0.512;-10.444;0.021;-0.061;-0.016;28.770;3.226;27.392;3.4;-5.0;180.2;35.1;12;2025-05-13;13:07:23;51.935.505;4.194.782;-11.945.732.422;-6.902.674.316;1.8;0.00;33.14;7.42;27.0;396.00;395.00;395.00;396.00;
199194;101894;-47.33;31.9;0.905;-0.546;-10.434;0.022;-0.060;-0.013;28.770;3.226;27.392;3.4;-5.0;180.3;35.0;12;2025-05-13;13:07:24;51.935.505;4.194.784;-11.945.640.625;-6.902.674.316;1.8;0.00;33.14;7.42;27.0;396.00;395.00;395.00;396.00;
199294;101894;-47.30;31.9;0.967;-0.551;-10.492;0.025;-0.068;-0.012;28.770;3.226;27.392;3.5;-5.0;180.4;35.0;12;2025-05-13;13:07:24;51.935.505;4.194.784;-11.945.640.625;-6.902.674.316;1.8;0.00;36.30;7.77;27.0;396.00;395.00;395.00;396.00;
199394;101893;-47.20;31.9;0.905;-0.579;-10.425;0.020;-0.066;-0.013;28.770;3.226;27.392;3.5;-5.0;180.5;35.0;12;2025-05-13;13:07:24;51.935.505;4.194.784;-11.945.640.625;-6.902.674.316;1.8;0.00;33.14;7.42;27.0;396.00;395.00;395.00;396.00;
199494;101891;-47.05;31.9;0.905;-0.546;-10.444;0.022;-0.061;-0.012;28.770;3.226;27.392;3.6;-5.0;180.5;35.0;12;2025-05-13;13:07:24;51.935.505;4.194.784;-11.945.640.625;-6.902.674.316;1.8;0.00;37.35;7.88;27.0;396.00;395.00;395.00;396.00;
199594;101893;-47.24;31.9;0.943;-0.555;-10.386;0.022;-0.063;-0.009;28.770;3.226;27.392;3.6;-5.0;180.6;35.0;12;2025-05-13;13:07:24;51.935.505;4.194.784;-11.945.640.625;-6.902.674.316;1.8;0.00;40.51;8.20;27.0;396.00;395.00;395.00;396.00;
199694;101895;-47.38;31.9;0.895;-0.560;-10.448;0.021;-0.063;-0.011;28.770;3.226;27.392;3.6;-5.0;180.7;35.0;12;2025-05-13;13:07:24;51.935.505;4.194.784;-11.945.640.625;-6.902.674.316;1.8;0.00;39.45;8.10;27.0;396.00;395.00;395.00;396.00;
199794;101893;-47.19;31.9;0.919;-0.517;-10.425;0.025;-0.062;-0.011;28.770;3.226;27.392;3.6;-5.0;180.7;35.1;12;2025-05-13;13:07:24;51.935.505;4.194.784;-11.945.640.625;-6.902.674.316;1.8;0.00;36.30;7.77;27.0;396.00;395.00;395.00;396.00;
199894;101893;-47.22;31.9;0.982;-0.517;-10.496;0.022;-0.065;-0.014;28.770;3.226;27.392;3.7;-5.0;180.8;35.0;12;2025-05-13;13:07:24;51.935.505;4.194.784;-11.945.640.625;-6.902.674.316;1.8;0.00;39.45;8.10;27.0;396.00;395.00;395.00;396.00;
199994;101895;-47.42;31.9;0.876;-0.541;-10.401;0.022;-0.063;-0.015;28.770;3.226;27.392;3.7;-5.0;180.9;35.0;12;2025-05-13;13:07:24;51.935.505;4.194.784;-11.945.640.625;-6.902.674.316;1.8;0.00;36.30;7.77;27.0;396.00;395.00;395.00;396.00;
200094;101894;-47.31;31.9;0.982;-0.555;-10.477;0.020;-0.060;-0.010;28.770;3.226;27.392;3.7;-5.0;180.9;35.1;12;2025-05-13;13:07:24;51.935.505;4.194.784;-11.945.640.625;-6.902.674.316;1.8;0.00;39.45;8.10;27.0;396.00;395.00;395.00;396.00;
200194;101894;-47.27;31.9;0.934;-0.541;-10.401;0.020;-0.064;-0.011;28.770;3.226;27.392;3.7;-5.0;181.0;35.1;12;2025-05-13;13:07:25;51.935.505;4.194.784;-11.945.652.344;-6.902.748.535;1.8;0.00;28.93;6.93;27.0;396.00;395.00;395.00;396.00;
200294;101892;-47.15;31.9;0.891;-0.508;-10.444;0.025;-0.064;-0.011;28.770;3.226;27.392;3.7;-5.0;181.0;35.0;12;2025-05-13;13:07:25;51.935.505;4.194.784;-11.945.652.344;-6.902.748.535;1.8;0.00;39.45;8.10;27.0;396.00;395.00;395.00;396.00;
200394;101893;-47.19;31.9;0.924;-0.532;-10.458;0.021;-0.063;-0.014;27.870;1.971;27.219;3.6;-5.0;181.0;35.0;12;2025-05-13;13:07:25;51.935.505;4.194.784;-11.945.652.344;-6.902.748.535;1.6;0.00;31.04;7.18;27.0;396.00;395.00;395.00;396.00;
200494;101894;-47.30;31.9;0.891;-0.565;-10.487;0.021;-0.068;-0.015;27.870;1.971;27.219;3.6;-5.0;181.0;35.1;12;2025-05-13;13:07:25;51.935.505;4.194.784;-11.945.652.344;-6.902.748.535;1.6;0.00;36.30;7.77;27.0;396.00;395.00;395.00;396.00;
200594;101893;-47.21;31.9;0.919;-0.551;-10.405;0.022;-0.060;-0.012;27.870;1.971;27.219;3.6;-5.0;181.0;35.1;12;2025-05-13;13:07:25;51.935.505;4.194.784;-11.945.652.344;-6.902.748.535;1.6;0.00;37.35;7.88;27.0;396.00;395.00;395.00;396.00;
200694;101892;-47.12;31.9;0.910;-0.570;-10.444;0.020;-0.067;-0.016;27.870;1.971;27.219;3.5;-4.9;181.0;35.1;12;2025-05-13;13:07:25;51.935.505;4.194.784;-11.945.652.344;-6.902.748.535;1.6;0.00;37.35;7.88;27.0;396.00;395.00;395.00;396.00;
200794;101895;-47.37;31.9;0.895;-0.522;-10.410;0.025;-0.068;-0.012;27.870;1.971;27.219;3.5;-4.9;181.0;35.1;12;2025-05-13;13:07:25;51.935.505;4.194.784;-11.945.652.344;-6.902.748.535;1.6;0.00;36.30;7.77;27.0;396.00;395.00;395.00;396.00;
200894;101895;-47.23;31.9;0.953;-0.551;-10.448;0.021;-0.065;-0.014;27.870;1.971;27.219;3.5;-4.9;181.0;35.1;12;2025-05-13;13:07:25;51.935.505;4.194.784;-11.945.652.344;-6.902.748.535;1.6;0.00;36.30;7.77;27.0;396.00;395.00;395.00;396.00;
200994;101892;-47.16;31.9;0.924;-0.555;-10.482;0.020;-0.063;-0.016;27.870;1.971;27.219;3.4;-4.9;181.0;35.0;12;2025-05-13;13:07:25;51.935.505;4.194.784;-11.945.652.344;-6.902.748.535;1.6;0.00;37.35;7.88;27.0;396.00;395.00;395.00;396.00;
201094;101895;-47.37;31.9;0.900;-0.517;-10.362;0.023;-0.064;-0.014;27.870;1.971;27.219;3.4;-4.9;181.0;35.1;12;2025-05-13;13:07:25;51.935.505;4.194.784;-11.945.652.344;-6.902.748.535;1.6;0.00;28.93;6.93;27.0;396.00;395.00;395.00;396.00;
201194;101890;-46.97;31.9;0.943;-0.551;-10.401;0.021;-0.064;-0.017;27.870;1.971;27.219;3.4;-4.9;181.0;35.1;12;2025-05-13;13:07:26;51.935.505;4.194.783;-11.945.674.805;-6.902.822.754;1.6;0.00;33.14;7.42;27.0;396.00;395.00;395.00;396.00;
201294;101891;-47.09;31.9;0.905;-0.532;-10.410;0.021;-0.064;-0.014;27.870;1.971;27.219;3.3;-4.9;181.0;35.1;12;2025-05-13;13:07:26;51.935.505;4.194.783;-11.945.674.805;-6.902.822.754;1.6;0.00;37.35;7.88;27.0;396.00;395.00;395.00;396.00;
201394;101892;-47.14;31.9;0.895;-0.541;-10.429;0.022;-0.062;-0.010;27.870;1.971;27.219;3.3;-4.9;180.9;35.1;12;2025-05-13;13:07:26;51.935.505;4.194.783;-11.945.674.805;-6.902.822.754;1.5;0.00;28.93;6.93;27.0;396.00;395.00;395.00;396.00;
201494;101892;-47.11;31.9;0.886;-0.522;-10.492;0.021;-0.062;-0.013;27.870;1.971;27.219;3.3;-4.9;180.9;35.1;12;2025-05-13;13:07:26;51.935.505;4.194.783;-11.945.674.805;-6.902.822.754;1.5;0.00;39.45;8.10;27.0;396.00;395.00;395.00;396.00;
201594;101893;-47.23;31.9;0.939;-0.555;-10.439;0.026;-0.061;-0.014;27.870;1.971;27.219;3.3;-4.9;180.9;35.1;12;2025-05-13;13:07:26;51.935.505;4.194.783;-11.945.674.805;-6.902.822.754;1.5;0.00;31.04;7.18;27.0;396.00;395.00;395.00;396.00;
201694;101891;-47.06;31.9;0.953;-0.555;-10.458;0.021;-0.064;-0.014;27.870;1.971;27.219;3.3;-4.9;180.9;35.1;12;2025-05-13;13:07:26;51.935.505;4.194.783;-11.945.674.805;-6.902.822.754;1.5;0.00;28.93;6.93;27.0;396.00;395.00;395.00;396.00;
201794;101889;-46.88;31.9;0.876;-0.532;-10.463;0.021;-0.067;-0.013;27.870;1.971;27.219;3.2;-4.9;180.9;35.1;12;2025-05-13;13:07:26;51.935.505;4.194.783;-11.945.674.805;-6.902.822.754;1.5;0.00;36.30;7.77;27.0;396.00;395.00;395.00;396.00;
201894;101890;-47.01;31.9;0.953;-0.536;-10.444;0.019;-0.063;-0.010;27.870;1.971;27.219;3.2;-4.9;180.9;35.1;12;2025-05-13;13:07:26;51.935.505;4.194.783;-11.945.674.805;-6.902.822.754;1.5;0.00;37.35;7.88;27.0;396.00;395.00;395.00;396.00;
201994;101893;-47.25;31.9;0.929;-0.532;-10.468;0.022;-0.066;-0.014;27.870;1.971;27.219;3.2;-4.9;180.9;35.1;12;2025-05-13;13:07:26;51.935.505;4.194.783;-11.945.674.805;-6.902.822.754;1.5;0.00;28.93;6.93;27.0;396.00;395.00;395.00;396.00;
202094;101890;-46.96;31.9;0.929;-0.551;-10.458;0.020;-0.063;-0.013;27.870;1.971;27.219;3.2;-4.9;180.9;35.1;12;2025-05-13;13:07:26;51.935.505;4.194.783;-11.945.674.805;-6.902.822.754;1.5;0.00;27.88;6.81;27.0;396.00;395.00;395.00;396.00;
202194;101892;-47.12;31.9;0.905;-0.532;-10.429;0.020;-0.064;-0.010;27.870;1.971;27.219;3.2;-4.9;180.9;35.1;12;2025-05-13;13:07:27;51.935.501;4.194.783;-11.945.664.063;-6.902.878.418;1.5;0.00;36.30;7.77;27.0;396.00;395.00;395.00;396.00;
202294;101891;-47.05;31.9;0.895;-0.532;-10.386;0.023;-0.066;-0.013;27.870;1.971;27.219;3.2;-4.9;180.9;35.1;12;2025-05-13;13:07:27;51.935.501;4.194.783;-11.945.664.063;-6.902.878.418;1.5;0.00;31.04;7.18;27.0;396.00;395.00;395.00;396.00;
202394;101893;-47.20;31.9;0.958;-0.512;-10.429;0.022;-0.063;-0.012;28.949;4.122;25.138;3.3;-4.9;181.1;35.1;12;2025-05-13;13:07:27;51.935.501;4.194.783;-11.945.664.063;-6.902.878.418;1.4;0.00;36.30;7.77;27.0;396.00;395.00;395.00;396.00;
202494;101893;-47.26;31.9;0.934;-0.541;-10.439;0.021;-0.064;-0.013;28.230;3.405;26.872;3.3;-4.9;181.1;35.1;12;2025-05-13;13:07:27;51.935.501;4.194.783;-11.945.664.063;-6.902.878.418;1.4;0.00;31.04;7.18;27.0;396.00;395.00;395.00;396.00;
202594;101895;-47.38;31.9;0.958;-0.532;-10.458;0.023;-0.065;-0.017;28.230;3.405;26.872;3.3;-4.9;181.2;35.0;12;2025-05-13;13:07:27;51.935.501;4.194.783;-11.945.664.063;-6.902.878.418;1.4;0.00;31.04;7.18;27.0;396.00;395.00;395.00;396.00;
202694;101892;-47.13;31.9;0.929;-0.575;-10.463;0.028;-0.066;-0.011;28.230;3.405;26.872;3.4;-4.9;181.3;35.1;12;2025-05-13;13:07:27;51.935.501;4.194.783;-11.945.664.063;-6.902.878.418;1.4;0.00;33.14;7.42;27.0;396.00;395.00;395.00;396.00;
202794;101892;-47.12;31.9;0.915;-0.565;-10.391;0.021;-0.066;-0.014;28.230;3.405;26.872;3.4;-4.9;181.3;35.1;12;2025-05-13;13:07:27;51.935.501;4.194.783;-11.945.664.063;-6.902.878.418;1.4;0.00;28.93;6.93;27.0;396.00;395.00;395.00;396.00;
202894;101890;-47.01;31.9;0.910;-0.546;-10.458;0.021;-0.063;-0.015;28.230;3.405;26.872;3.5;-4.9;181.4;35.1;12;2025-05-13;13:07:27;51.935.501;4.194.783;-11.945.664.063;-6.902.878.418;1.4;0.00;33.14;7.42;27.0;396.00;395.00;395.00;396.00;
202994;101891;-47.04;31.9;0.895;-0.508;-10.401;0.022;-0.064;-0.017;28.230;3.405;26.872;3.5;-4.9;181.5;35.1;12;2025-05-13;13:07:27;51.935.501;4.194.783;-11.945.664.063;-6.902.878.418;1.4;0.00;37.35;7.88;27.0;396.00;395.00;395.00;396.00;
203094;101890;-47.01;31.9;0.919;-0.517;-10.415;0.023;-0.064;-0.015;28.230;3.405;26.872;3.5;-4.9;181.5;35.1;12;2025-05-13;13:07:27;51.935.501;4.194.783;-11.945.664.063;-6.902.878.418;1.4;0.00;33.14;7.42;27.0;396.00;395.00;395.00;396.00;
203194;101891;-47.02;31.9;0.900;-0.522;-10.429;0.020;-0.064;-0.012;28.230;3.405;26.872;3.5;-4.9;181.6;35.2;12;2025-05-13;13:07:28;51.935.501;4.194.783;-11.945.674.805;-6.902.896.973;1.4;0.00;31.04;7.18;27.0;396.00;395.00;395.00;396.00;
203294;101889;-46.93;31.9;0.934;-0.498;-10.444;0.021;-0.064;-0.015;28.230;3.405;26.872;3.5;-4.9;181.6;35.0;12;2025-05-13;13:07:28;51.935.501;4.194.783;-11.945.674.805;-6.902.896.973;1.4;0.00;37.35;7.88;27.0;396.00;395.00;395.00;396.00;
203394;101891;-47.04;31.9;0.953;-0.565;-10.477;0.025;-0.065;-0.013;28.230;3.405;26.872;3.5;-4.9;181.7;35.1;12;2025-05-13;13:07:28;51.935.501;4.194.783;-11.945.674.805;-6.902.896.973;1.3;0.00;36.30;7.77;27.0;396.00;395.00;395.00;396.00;
203494;101892;-47.11;31.9;0.929;-0.546;-10.468;0.021;-0.061;-0.012;28.230;3.405;26.872;3.5;-4.9;181.7;35.1;12;2025-05-13;13:07:28;51.935.501;4.194.783;-11.945.674.805;-6.902.896.973;1.3;0.00;36.30;7.77;27.0;396.00;395.00;395.00;396.00;
203594;101892;-47.18;31.9;0.948;-0.603;-10.453;0.022;-0.066;-0.013;28.230;3.405;26.872;3.6;-5.0;181.8;35.1;12;2025-05-13;13:07:28;51.935.501;4.194.783;-11.945.674.805;-6.902.896.973;1.3;0.00;39.45;8.10;27.0;396.00;395.00;395.00;396.00;
203694;101894;-47.27;31.9;0.891;-0.508;-10.458;0.025;-0.063;-0.014;28.230;3.405;26.872;3.6;-4.9;181.8;35.1;12;2025-05-13;13:07:28;51.935.501;4.194.783;-11.945.674.805;-6.902.896.973;1.3;0.00;37.35;7.88;27.0;396.00;395.00;395.00;396.00;
203794;101891;-47.08;31.9;0.891;-0.570;-10.405;0.020;-0.062;-0.014;28.230;3.405;26.872;3.6;-4.9;181.9;35.1;12;2025-05-13;13:07:28;51.935.501;4.194.783;-11.945.674.805;-6.902.896.973;1.3;0.00;33.14;7.42;27.0;396.00;395.00;395.00;396.00;
203894;101891;-47.10;31.9;0.905;-0.551;-10.453;0.025;-0.066;-0.010;28.230;3.405;26.872;3.6;-4.9;181.9;35.1;12;2025-05-13;13:07:28;51.935.501;4.194.783;-11.945.674.805;-6.902.896.973;1.3;0.00;31.04;7.18;27.0;396.00;395.00;395.00;396.00;
203994;101892;-47.10;31.9;0.919;-0.527;-10.463;0.020;-0.064;-0.014;28.230;3.405;26.872;3.6;-4.9;181.9;35.1;12;2025-05-13;13:07:28;51.935.501;4.194.783;-11.945.674.805;-6.902.896.973;1.3;0.00;37.35;7.88;27.0;396.00;395.00;395.00;396.00;
204094;101892;-47.13;31.9;0.934;-0.565;-10.458;0.022;-0.064;-0.013;28.230;3.405;26.872;3.6;-4.9;182.0;35.1;12;2025-05-13;13:07:28;51.935.501;4.194.783;-11.945.674.805;-6.902.896.973;1.3;0.00;33.14;7.42;27.0;396.00;395.00;395.00;396.00;
204194;101893;-47.23;31.9;0.891;-0.541;-10.434;0.021;-0.063;-0.013;27.511;2.688;25.832;3.6;-4.9;182.0;35.1;12;2025-05-13;13:07:29;51.935.501;4.194.783;-11.945.664.063;-6.902.859.863;1.3;0.00;36.30;7.77;27.0;396.00;395.00;395.00;396.00;
204294;101890;-46.99;31.9;0.977;-0.493;-10.448;0.025;-0.066;-0.014;28.230;1.613;27.565;3.5;-4.9;181.9;35.1;12;2025-05-13;13:07:29;51.935.501;4.194.783;-11.945.664.063;-6.902.859.863;1.3;0.00;33.14;7.42;27.0;396.00;395.00;395.00;396.00;
204394;101889;-46.92;31.9;0.915;-0.508;-10.448;0.019;-0.061;-0.013;28.230;1.613;27.565;3.4;-4.9;181.9;35.1;12;2025-05-13;13:07:29;51.935.501;4.194.783;-11.945.664.063;-6.902.859.863;1.3;0.00;36.30;7.77;27.0;396.00;395.00;395.00;396.00;
204494;101894;-47.29;31.9;0.924;-0.570;-10.415;0.019;-0.066;-0.015;28.230;1.613;27.565;3.3;-4.9;181.8;35.1;12;2025-05-13;13:07:29;51.935.501;4.194.783;-11.945.664.063;-6.902.859.863;1.3;0.00;31.04;7.18;27.0;396.00;395.00;395.00;396.00;
204594;101893;-47.19;31.9;0.953;-0.551;-10.487;0.016;-0.065;-0.013;28.230;1.613;27.565;3.3;-4.9;181.8;35.1;12;2025-05-13;13:07:29;51.935.501;4.194.783;-11.945.664.063;-6.902.859.863;1.3;0.00;37.35;7.88;27.0;396.00;395.00;395.00;396.00;
204694;101892;-47.13;31.9;0.891;-0.551;-10.482;0.023;-0.064;-0.011;28.230;1.613;27.565;3.2;-4.9;181.7;35.1;12;2025-05-13;13:07:29;51.935.501;4.194.783;-11.945.664.063;-6.902.859.863;1.3;0.00;36.30;7.77;27.0;396.00;395.00;395.00;396.00;
204794;101890;-47.00;31.9;0.900;-0.551;-10.453;0.023;-0.067;-0.012;28.230;1.613;27.565;3.2;-4.9;181.7;35.1;12;2025-05-13;13:07:29;51.935.501;4.194.783;-11.945.664.063;-6.902.859.863;1.3;0.00;25.78;6.54;27.0;396.00;395.00;395.00;396.00;
204894;101891;-47.08;31.9;0.905;-0.541;-10.367;0.021;-0.062;-0.012;28.230;1.613;27.565;3.1;-4.9;181.7;35.1;12;2025-05-13;13:07:29;51.935.501;4.194.783;-11.945.664.063;-6.902.859.863;1.3;0.00;31.04;7.18;27.0;396.00;395.00;395.00;396.00;
204994;101891;-47.09;31.9;0.915;-0.584;-10.420;0.022;-0.059;-0.011;28.230;1.613;27.565;3.1;-4.9;181.6;35.1;12;2025-05-13;13:07:29;51.935.501;4.194.783;-11.945.664.063;-6.902.859.863;1.3;0.00;33.14;7.42;27.0;396.00;395.00;395.00;396.00;
205094;101891;-47.02;31.9;0.929;-0.508;-10.415;0.020;-0.064;-0.013;28.230;1.613;27.565;3.1;-4.9;181.6;35.1;12;2025-05-13;13:07:29;51.935.501;4.194.783;-11.945.664.063;-6.902.859.863;1.3;0.00;33.14;7.42;27.0;396.00;395.00;395.00;396.00;
205194;101891;-47.08;31.9;0.924;-0.551;-10.386;0.022;-0.063;-0.013;28.230;1.613;27.565;3.0;-4.9;181.5;35.1;12;2025-05-13;13:07:30;51.935.501;4.194.783;-11.945.720.703;-6.902.896.973;1.3;0.00;36.30;7.77;27.0;396.00;395.00;395.00;396.00;
205294;101892;-47.10;31.9;0.962;-0.498;-10.482;0.020;-0.064;-0.016;28.230;1.613;27.565;3.0;-4.9;181.5;35.0;12;2025-05-13;13:07:30;51.935.501;4.194.783;-11.945.720.703;-6.902.896.973;1.3;0.00;28.93;6.93;27.0;396.00;395.00;395.00;396.00;
205394;101891;-47.08;31.9;0.905;-0.527;-10.472;0.017;-0.064;-0.014;28.230;1.613;27.565;2.9;-4.9;181.5;35.1;12;2025-05-13;13:07:30;51.935.501;4.194.783;-11.945.720.703;-6.902.896.973;1.2;0.00;31.04;7.18;27.0;396.00;395.00;395.00;396.00;
205494;101892;-47.13;31.9;0.867;-0.522;-10.458;0.020;-0.058;-0.016;28.230;1.613;27.565;2.9;-4.9;181.5;35.1;12;2025-05-13;13:07:30;51.935.501;4.194.783;-11.945.720.703;-6.902.896.973;1.2;0.00;33.14;7.42;27.0;396.00;395.00;395.00;396.00;
205594;101890;-46.99;31.9;0.962;-0.546;-10.453;0.018;-0.068;-0.012;28.230;1.613;27.565;2.9;-4.9;181.4;35.1;12;2025-05-13;13:07:30;51.935.501;4.194.783;-11.945.720.703;-6.902.896.973;1.2;0.00;31.04;7.18;27.0;396.00;395.00;395.00;396.00;
205694;101891;-47.09;31.9;0.958;-0.555;-10.410;0.021;-0.064;-0.013;28.230;1.613;27.565;2.9;-4.9;181.4;35.1;12;2025-05-13;13:07:30;51.935.501;4.194.783;-11.945.720.703;-6.902.896.973;1.2;0.00;28.93;6.93;27.0;396.00;395.00;395.00;396.00;
205794;101892;-47.08;31.9;0.900;-0.560;-10.492;0.025;-0.060;-0.016;28.230;1.613;27.565;2.9;-4.9;181.4;35.1;12;2025-05-13;13:07:30;51.935.501;4.194.783;-11.945.720.703;-6.902.896.973;1.2;0.00;36.30;7.77;27.0;396.00;395.00;395.00;396.00;
205894;101894;-47.30;31.9;0.915;-0.560;-10.448;0.022;-0.061;-0.013;28.230;1.613;27.565;2.9;-4.9;181.4;35.1;12;2025-05-13;13:07:30;51.935.501;4.194.783;-11.945.720.703;-6.902.896.973;1.2;0.00;28.93;6.93;27.0;396.00;395.00;395.00;396.00;
205994;101892;-47.15;31.9;0.934;-0.508;-10.458;0.022;-0.064;-0.012;28.230;1.613;27.565;2.8;-4.9;181.3;35.1;12;2025-05-13;13:07:30;51.935.501;4.194.783;-11.945.720.703;-6.902.896.973;1.2;0.00;36.30;7.77;27.0;396.00;395.00;395.00;396.00;
206094;101890;-47.01;31.9;0.924;-0.532;-10.458;0.018;-0.061;-0.014;28.230;1.613;27.565;2.8;-4.9;181.3;35.1;12;2025-05-13;13:07:30;51.935.501;4.194.783;-11.945.720.703;-6.902.896.973;1.2;0.00;33.14;7.42;27.0;396.00;395.00;395.00;396.00;
206194;101891;-47.05;31.9;0.867;-0.541;-10.377;0.018;-0.062;-0.013;28.230;1.613;27.565;2.8;-4.9;181.3;35.1;12;2025-05-13;13:07:31;51.935.501;4.194.783;-11.945.698.242;-6.902.859.863;1.2;0.00;37.35;7.88;27.0;396.00;395.00;395.00;396.00;
206294;101890;-47.01;31.9;0.967;-0.570;-10.477;0.023;-0.063;-0.011;28.050;1.792;25.312;2.8;-4.9;181.3;35.1;12;2025-05-13;13:07:31;51.935.501;4.194.783;-11.945.698.242;-6.902.859.863;1.2;0.00;36.30;7.77;27.0;396.00;395.00;395.00;396.00;
206394;101888;-46.81;32.0;0.872;-0.546;-10.415;0.021;-0.062;-0.014;27.870;3.405;27.219;2.9;-4.9;181.4;35.1;12;2025-05-13;13:07:31;51.935.501;4.194.783;-11.945.698.242;-6.902.859.863;1.2;0.00;33.14;7.42;27.0;396.00;395.00;395.00;396.00;
206494;101891;-47.08;31.9;0.924;-0.551;-10.405;0.022;-0.060;-0.016;27.870;3.405;27.219;3.0;-4.9;181.4;35.1;12;2025-05-13;13:07:31;51.935.501;4.194.783;-11.945.698.242;-6.902.859.863;1.2;0.00;31.04;7.18;27.0;396.00;395.00;395.00;396.00;
206594;101891;-47.04;32.0;0.962;-0.555;-10.448;0.021;-0.061;-0.014;27.870;3.405;27.219;3.0;-4.9;181.5;35.1;12;2025-05-13;13:07:31;51.935.501;4.194.783;-11.945.698.242;-6.902.859.863;1.2;0.00;33.14;7.42;27.0;396.00;395.00;395.00;396.00;
206694;101890;-46.98;32.0;0.895;-0.541;-10.448;0.018;-0.064;-0.018;27.870;3.405;27.219;3.1;-4.9;181.6;35.2;12;2025-05-13;13:07:31;51.935.501;4.194.783;-11.945.698.242;-6.902.859.863;1.2;0.00;37.35;7.88;27.0;396.00;395.00;395.00;396.00;
206794;101891;-47.08;32.0;0.919;-0.536;-10.487;0.016;-0.061;-0.012;27.870;3.405;27.219;3.1;-4.9;181.6;35.1;12;2025-05-13;13:07:31;51.935.501;4.194.783;-11.945.698.242;-6.902.859.863;1.2;0.00;33.14;7.42;27.0;396.00;395.00;395.00;396.00;
206894;101892;-47.15;32.0;0.924;-0.536;-10.487;0.020;-0.065;-0.017;27.870;3.405;27.219;3.2;-4.9;181.7;35.2;12;2025-05-13;13:07:31;51.935.501;4.194.783;-11.945.698.242;-6.902.859.863;1.2;0.00;33.14;7.42;27.0;396.00;395.00;395.00;396.00;
206994;101889;-46.85;31.9;0.910;-0.541;-10.429;0.023;-0.067;-0.009;27.870;3.405;27.219;3.2;-4.9;181.7;35.1;12;2025-05-13;13:07:31;51.935.501;4.194.783;-11.945.698.242;-6.902.859.863;1.2;0.00;31.04;7.18;27.0;396.00;395.00;395.00;396.00;
207094;101891;-47.07;32.0;0.895;-0.575;-10.453;0.021;-0.065;-0.012;27.870;3.405;27.219;3.3;-4.9;181.8;35.1;12;2025-05-13;13:07:31;51.935.501;4.194.783;-11.945.698.242;-6.902.859.863;1.2;0.00;36.30;7.77;27.0;396.00;395.00;395.00;396.00;
207194;101893;-47.19;32.0;0.953;-0.503;-10.448;0.022;-0.064;-0.011;27.870;3.405;27.219;3.3;-4.9;181.8;35.1;12;2025-05-13;13:07:32;51.935.501;4.194.783;-11.945.664.063;-6.902.878.418;1.2;0.00;33.14;7.42;27.0;396.00;395.00;395.00;396.00;
207294;101890;-46.94;31.9;0.924;-0.541;-10.425;0.021;-0.065;-0.014;27.870;3.405;27.219;3.3;-4.9;181.9;35.1;12;2025-05-13;13:07:32;51.935.501;4.194.783;-11.945.664.063;-6.902.878.418;1.2;0.00;31.04;7.18;27.0;396.00;395.00;395.00;396.00;
207394;101891;-47.05;32.0;0.915;-0.555;-10.487;0.022;-0.064;-0.014;27.870;3.405;27.219;3.3;-4.9;181.9;35.1;12;2025-05-13;13:07:32;51.935.501;4.194.783;-11.945.664.063;-6.902.878.418;1.2;0.00;37.35;7.88;27.0;396.00;395.00;395.00;396.00;
207494;101892;-47.18;32.0;0.905;-0.512;-10.463;0.026;-0.064;-0.015;27.870;3.405;27.219;3.3;-4.9;182.0;35.1;12;2025-05-13;13:07:32;51.935.501;4.194.783;-11.945.664.063;-6.902.878.418;1.2;0.00;37.35;7.88;27.0;396.00;395.00;395.00;396.00;
207594;101892;-47.14;32.0;0.934;-0.560;-10.405;0.022;-0.064;-0.015;27.870;3.405;27.219;3.4;-4.9;182.0;35.2;12;2025-05-13;13:07:32;51.935.501;4.194.783;-11.945.664.063;-6.902.878.418;1.2;0.00;33.14;7.42;27.0;396.00;395.00;395.00;396.00;
207694;101893;-47.23;32.0;0.919;-0.527;-10.448;0.025;-0.065;-0.013;27.870;3.405;27.219;3.4;-4.9;182.1;35.2;12;2025-05-13;13:07:32;51.935.501;4.194.783;-11.945.664.063;-6.902.878.418;1.2;0.00;37.35;7.88;27.0;396.00;395.00;395.00;396.00;
207794;101892;-47.17;32.0;0.891;-0.551;-10.425;0.021;-0.066;-0.013;27.870;3.405;27.219;3.4;-4.9;182.1;35.1;12;2025-05-13;13:07:32;51.935.501;4.194.783;-11.945.664.063;-6.902.878.418;1.2;0.00;36.30;7.77;27.0;396.00;395.00;395.00;396.00;
207894;101891;-47.03;32.0;0.886;-0.522;-10.434;0.023;-0.062;-0.011;27.870;3.405;27.219;3.4;-4.9;182.1;35.1;12;2025-05-13;13:07:32;51.935.501;4.194.783;-11.945.664.063;-6.902.878.418;1.2;0.00;31.04;7.18;27.0;396.00;395.00;395.00;396.00;
207994;101889;-46.86;32.0;0.910;-0.532;-10.425;0.021;-0.064;-0.010;27.870;3.405;27.219;3.4;-4.9;182.2;35.1;12;2025-05-13;13:07:32;51.935.501;4.194.783;-11.945.664.063;-6.902.878.418;1.2;0.00;31.04;7.18;27.0;396.00;395.00;395.00;396.00;
208094;101891;-47.10;32.0;0.924;-0.541;-10.458;0.023;-0.064;-0.009;27.870;3.047;27.219;3.4;-4.9;182.2;35.2;12;2025-05-13;13:07:32;51.935.501;4.194.783;-11.945.664.063;-6.902.878.418;1.2;0.00;28.93;6.93;27.0;396.00;395.00;395.00;396.00;
208194;101892;-47.13;32.0;0.867;-0.512;-10.472;0.019;-0.061;-0.014;27.870;1.613;26.178;3.3;-4.9;182.1;35.2;12;2025-05-13;13:07:33;51.935.501;4.194.785;-11.945.583.984;-6.902.878.418;1.2;0.00;31.04;7.18;27.0;396.00;395.00;395.00;396.00;
208294;101890;-47.01;32.0;0.962;-0.541;-10.415;0.022;-0.063;-0.015;27.870;1.613;26.178;3.3;-4.9;182.1;35.2;12;2025-05-13;13:07:33;51.935.501;4.194.785;-11.945.583.984;-6.902.878.418;1.2;0.00;33.14;7.42;27.0;396.00;395.00;395.00;396.00;
208394;101893;-47.21;32.0;0.910;-0.560;-10.487;0.019;-0.063;-0.011;27.870;1.613;26.178;3.2;-4.9;182.0;35.1;12;2025-05-13;13:07:33;51.935.501;4.194.785;-11.945.583.984;-6.902.878.418;1.2;0.00;31.04;7.18;27.0;396.00;395.00;395.00;396.00;
208494;101893;-47.18;32.0;0.886;-0.594;-10.334;0.020;-0.062;-0.012;27.870;1.613;26.178;3.2;-4.9;182.0;35.2;12;2025-05-13;13:07:33;51.935.501;4.194.785;-11.945.583.984;-6.902.878.418;1.2;0.00;37.35;7.88;27.0;396.00;395.00;395.00;396.00;
208594;101892;-47.15;32.0;0.924;-0.532;-10.477;0.017;-0.067;-0.017;27.870;1.613;26.178;3.1;-4.9;181.9;35.1;12;2025-05-13;13:07:33;51.935.501;4.194.785;-11.945.583.984;-6.902.878.418;1.2;0.00;33.14;7.42;27.0;396.00;395.00;395.00;396.00;
208694;101892;-47.17;32.0;0.934;-0.546;-10.434;0.019;-0.063;-0.012;27.870;1.613;26.178;3.1;-4.9;181.9;35.1;12;2025-05-13;13:07:33;51.935.501;4.194.785;-11.945.583.984;-6.902.878.418;1.2;0.00;33.14;7.42;27.0;396.00;395.00;395.00;396.00;
208794;101893;-47.21;32.0;0.924;-0.517;-10.377;0.025;-0.062;-0.013;27.870;1.613;26.178;3.0;-4.9;181.9;35.2;12;2025-05-13;13:07:33;51.935.501;4.194.785;-11.945.583.984;-6.902.878.418;1.2;0.00;28.93;6.93;27.0;396.00;395.00;395.00;396.00;
208894;101893;-47.20;32.0;0.953;-0.541;-10.353;0.021;-0.064;-0.014;27.870;1.613;26.178;3.0;-4.9;181.8;35.1;12;2025-05-13;13:07:33;51.935.501;4.194.785;-11.945.583.984;-6.902.878.418;1.2;0.00;39.45;8.10;27.0;396.00;395.00;395.00;396.00;
208994;101891;-47.03;32.0;0.910;-0.522;-10.448;0.025;-0.064;-0.015;27.870;1.613;26.178;3.0;-4.9;181.8;35.2;12;2025-05-13;13:07:33;51.935.501;4.194.785;-11.945.583.984;-6.902.878.418;1.2;0.00;28.93;6.93;27.0;396.00;395.00;395.00;396.00;
209094;101893;-47.24;32.0;0.905;-0.541;-10.420;0.025;-0.065;-0.017;27.870;1.613;26.178;2.9;-4.9;181.7;35.2;12;2025-05-13;13:07:33;51.935.501;4.194.785;-11.945.583.984;-6.902.878.418;1.2;0.00;31.04;7.18;27.0;396.00;395.00;395.00;396.00;
209194;101890;-47.00;32.0;0.905;-0.522;-10.468;0.022;-0.061;-0.011;27.870;1.613;26.178;2.9;-4.9;181.7;35.2;12;2025-05-13;13:07:34;51.935.501;4.194.785;-11.945.538.086;-6.902.859.863;1.2;0.00;40.51;8.20;27.0;396.00;395.00;395.00;396.00;
209294;101891;-47.09;32.0;0.919;-0.560;-10.444;0.019;-0.063;-0.007;27.870;1.613;26.178;2.9;-4.9;181.7;35.2;12;2025-05-13;13:07:34;51.935.501;4.194.785;-11.945.538.086;-6.902.859.863;1.2;0.00;36.30;7.77;27.0;396.00;395.00;395.00;396.00;
209394;101891;-47.03;32.0;0.982;-0.508;-10.463;0.019;-0.063;-0.015;27.870;1.613;26.178;2.8;-4.9;181.7;35.2;12;2025-05-13;13:07:34;51.935.501;4.194.785;-11.945.538.086;-6.902.859.863;1.3;0.00;39.45;8.10;27.0;396.00;395.00;395.00;396.00;
209494;101891;-47.03;32.0;0.905;-0.570;-10.506;0.022;-0.066;-0.012;27.870;1.613;26.178;2.8;-4.9;181.6;35.1;12;2025-05-13;13:07:34;51.935.501;4.194.785;-11.945.538.086;-6.902.859.863;1.3;0.00;33.14;7.42;27.0;396.00;395.00;395.00;396.00;
