Time[ms];Pressure[Pa];Approxaltitude[m];Temperature[degC];accX[m/s2];accY[m/s2];accZ[m/s2];rotX[rad/s];rotY[rad/s];rotZ[rad/s];magX[uT];magY[uT];magZ[uT];roll[deg];pitch[deg];heading[deg];tempMPU[degC];Satellites[];Date[yyyy-mm-dd];Time[hh:mm:ss];Latitude[deg];Longitude[deg];RelativeX[m];RelativeY[m];Altitude[m];Angle[deg];deltapressure[Pa];speed[m/s];tempPitot[degC];Ch0;Ch1;Ch2;Ch3;
422465;101846;-43.35;32.0;1.015;-0.618;-10.262;0.021;-0.068;-0.012;-8.990;74.557;59.291;3.2;-4.9;273.6;34.5;12;2025-05-13;14:53:03;51.935539;4.194826;-11942.762695;-6899.000977;7.7;346.82;36.30;7.77;27.0;399.00;399.00;399.00;399.00;
422499;101846;-43.35;32.0;0.972;-0.627;-10.396;0.021;-0.069;-0.012;-8.990;74.557;59.291;3.2;-4.9;273.6;34.5;12;2025-05-13;14:53:03;51.935539;4.194826;-11942.762695;-6899.000977;7.7;346.82;37.35;7.88;27.0;399.00;399.00;399.00;399.00;
422599;101848;-43.46;32.0;0.948;-0.632;-10.549;0.019;-0.058;-0.021;-8.990;74.557;59.291;3.2;-4.9;273.6;34.5;12;2025-05-13;14:53:04;51.935539;4.194827;-11942.694336;-6898.963867;7.7;346.82;37.35;7.88;27.0;399.00;399.00;399.00;399.00;
422699;101848;-43.53;32.0;0.967;-0.603;-10.401;0.026;-0.065;-0.007;-8.990;74.557;59.291;3.2;-4.9;273.6;34.5;12;2025-05-13;14:53:04;51.935539;4.194827;-11942.694336;-6898.963867;7.5;346.82;33.14;7.42;27.0;399.00;399.00;399.00;399.00;
422799;101850;-43.62;32.0;1.135;-0.522;-10.429;0.020;-0.065;-0.012;-8.990;74.557;59.291;3.2;-4.9;273.5;34.4;12;2025-05-13;14:53:04;51.935539;4.194827;-11942.694336;-6898.963867;7.5;346.82;33.14;7.42;27.0;399.00;399.00;399.00;399.00;
422899;101848;-43.53;32.0;1.044;-0.584;-10.434;0.028;-0.066;-0.015;-8.990;74.557;59.291;3.2;-5.0;273.5;34.5;12;2025-05-13;14:53:04;51.935539;4.194827;-11942.694336;-6898.963867;7.5;346.82;33.14;7.42;27.0;399.00;399.00;399.00;399.00;
422999;101849;-43.60;32.0;1.106;-0.551;-10.377;0.021;-0.058;-0.017;-8.990;74.557;59.291;3.2;-5.0;273.5;34.5;12;2025-05-13;14:53:04;51.935539;4.194827;-11942.694336;-6898.963867;7.5;346.82;37.35;7.88;27.0;399.00;399.00;399.00;399.00;
423099;101847;-43.39;32.0;1.082;-0.589;-10.386;0.026;-0.066;-0.015;-8.990;74.557;59.291;3.2;-5.0;273.5;34.5;12;2025-05-13;14:53:04;51.935539;4.194827;-11942.694336;-6898.963867;7.5;346.82;37.35;7.88;27.0;399.00;399.00;399.00;399.00;
423199;101846;-43.32;32.0;1.053;-0.555;-10.425;0.025;-0.062;-0.014;-8.990;74.557;59.291;3.2;-5.0;273.5;34.5;12;2025-05-13;14:53:04;51.935539;4.194827;-11942.694336;-6898.963867;7.5;346.82;36.30;7.77;27.0;399.00;399.00;399.00;399.00;
423299;101850;-43.63;32.0;1.010;-0.488;-10.329;0.023;-0.062;-0.017;-8.990;74.557;59.291;3.2;-5.0;273.5;34.5;12;2025-05-13;14:53:04;51.935539;4.194827;-11942.694336;-6898.963867;7.5;346.82;37.35;7.88;27.0;399.00;399.00;399.00;399.00;
423399;101847;-43.43;32.0;1.015;-0.589;-10.314;0.020;-0.067;-0.014;-5.214;77.245;64.666;3.2;-5.0;273.3;34.5;12;2025-05-13;14:53:04;51.935539;4.194827;-11942.694336;-6898.963867;7.5;346.82;37.35;7.88;27.0;399.00;399.00;399.00;399.00;
423499;101847;-43.38;32.0;1.030;-0.512;-10.367;0.023;-0.067;-0.009;-5.214;77.245;64.666;3.2;-4.9;273.2;34.5;12;2025-05-13;14:53:04;51.935539;4.194827;-11942.694336;-6898.963867;7.5;346.82;33.14;7.42;27.0;399.00;399.00;399.00;399.00;
423599;101851;-43.72;32.0;1.034;-0.522;-10.410;0.023;-0.064;-0.013;-5.214;77.245;64.666;3.2;-4.8;273.1;34.5;12;2025-05-13;14:53:05;51.935539;4.194826;-11942.728516;-6898.963867;7.5;346.82;33.14;7.42;27.0;399.00;399.00;399.00;399.00;
423699;101845;-43.25;32.0;1.073;-0.517;-10.338;0.020;-0.066;-0.015;-5.214;77.245;64.666;3.1;-4.8;273.1;34.5;12;2025-05-13;14:53:05;51.935539;4.194826;-11942.728516;-6898.963867;7.3;346.82;33.14;7.42;27.0;399.00;399.00;399.00;399.00;
423799;101848;-43.51;32.0;1.044;-0.584;-10.420;0.026;-0.066;-0.012;-5.214;77.245;64.666;3.2;-4.7;273.0;34.4;12;2025-05-13;14:53:05;51.935539;4.194826;-11942.728516;-6898.963867;7.3;346.82;31.04;7.18;27.0;399.00;399.00;399.00;399.00;
423899;101848;-43.45;32.0;1.006;-0.512;-10.310;0.022;-0.065;-0.012;-5.214;77.245;64.666;3.1;-4.7;272.9;34.5;12;2025-05-13;14:53:05;51.935539;4.194826;-11942.728516;-6898.963867;7.3;346.82;39.45;8.10;27.0;399.00;399.00;399.00;399.00;
423999;101847;-43.38;32.0;0.953;-0.594;-10.405;0.021;-0.068;-0.009;-5.214;77.245;64.666;3.2;-4.6;272.8;34.5;12;2025-05-13;14:53:05;51.935539;4.194826;-11942.728516;-6898.963867;7.3;346.82;36.30;7.77;27.0;399.00;399.00;399.00;399.00;
424099;101847;-43.43;32.0;1.020;-0.575;-10.444;0.021;-0.063;-0.014;-5.214;77.245;64.666;3.2;-4.6;272.7;34.5;12;2025-05-13;14:53:05;51.935539;4.194826;-11942.728516;-6898.963867;7.3;346.82;33.14;7.42;27.0;399.00;399.00;399.00;399.00;
424199;101844;-43.20;32.0;1.092;-0.589;-10.630;0.007;-0.060;-0.029;-5.214;77.245;64.666;3.2;-4.6;272.6;34.5;12;2025-05-13;14:53:05;51.935539;4.194826;-11942.728516;-6898.963867;7.3;346.82;31.04;7.18;27.0;399.00;399.00;399.00;399.00;
424299;101848;-43.47;32.0;1.259;-0.584;-10.276;0.003;-0.054;-0.052;-5.214;77.245;64.666;3.2;-4.6;272.6;34.5;12;2025-05-13;14:53:05;51.935539;4.194826;-11942.728516;-6898.963867;7.3;346.82;33.14;7.42;27.0;399.00;399.00;399.00;399.00;
424399;101847;-43.39;32.0;1.571;-0.378;-10.755;-0.023;-0.035;-0.081;-5.214;77.245;64.666;3.1;-4.7;272.5;34.5;12;2025-05-13;14:53:05;51.935539;4.194826;-11942.728516;-6898.963867;7.3;346.82;28.93;6.93;27.0;399.00;399.00;399.00;399.00;
424499;101847;-43.38;32.0;1.633;-0.623;-10.961;-0.060;-0.030;-0.112;-5.214;77.245;64.666;3.1;-4.8;272.4;34.5;12;2025-05-13;14:53:05;51.935539;4.194826;-11942.728516;-6898.963867;7.3;346.82;33.14;7.42;27.0;399.00;399.00;399.00;399.00;
424599;101850;-43.64;32.0;0.996;-0.388;-9.510;-0.064;-0.088;-0.112;-5.214;77.245;64.666;3.1;-4.8;272.4;34.5;12;2025-05-13;14:53:06;51.935535;4.194827;-11942.659180;-6899.167969;7.3;346.82;37.35;7.88;27.0;399.00;399.00;399.00;399.00;
424699;101848;-43.53;32.0;0.781;0.048;-8.591;0.076;-0.112;-0.080;-5.214;77.245;64.666;2.9;-4.8;272.3;34.5;12;2025-05-13;14:53:06;51.935535;4.194827;-11942.659180;-6899.167969;6.8;346.82;36.30;7.77;27.0;399.00;399.00;399.00;399.00;
424799;101850;-43.67;32.0;1.207;-0.129;-10.654;0.132;-0.071;-0.084;-5.214;77.245;64.666;2.8;-4.8;272.3;34.5;12;2025-05-13;14:53:06;51.935535;4.194827;-11942.659180;-6899.167969;6.8;346.82;31.04;7.18;27.0;399.00;399.00;399.00;399.00;
424899;101845;-43.25;32.0;0.996;-0.766;-11.602;0.040;-0.052;-0.100;-5.214;77.245;64.666;2.9;-4.7;272.2;34.5;12;2025-05-13;14:53:06;51.935535;4.194827;-11942.659180;-6899.167969;6.8;346.82;31.04;7.18;27.0;399.00;399.00;399.00;399.00;
424999;101846;-43.31;32.0;1.010;-0.685;-10.961;-0.061;-0.058;-0.093;-5.214;77.245;64.666;2.9;-4.7;272.1;34.5;12;2025-05-13;14:53:06;51.935535;4.194827;-11942.659180;-6899.167969;6.8;346.82;33.14;7.42;27.0;399.00;399.00;399.00;399.00;
425099;101846;-43.31;32.0;1.168;-0.230;-10.377;-0.092;-0.055;-0.098;-5.214;77.245;64.666;2.8;-4.7;272.1;34.5;12;2025-05-13;14:53:06;51.935535;4.194827;-11942.659180;-6899.167969;6.8;346.82;28.93;6.93;27.0;399.00;399.00;399.00;399.00;
425199;101847;-43.42;32.0;0.474;-0.014;-9.117;-0.034;-0.084;-0.058;-5.214;77.245;64.666;2.7;-4.5;272.0;34.5;12;2025-05-13;14:53:06;51.935535;4.194827;-11942.659180;-6899.167969;6.8;346.82;37.35;7.88;27.0;399.00;399.00;399.00;399.00;
425299;101848;-43.49;32.0;0.594;0.153;-9.610;0.078;-0.104;-0.007;-5.214;77.245;64.666;2.5;-4.4;272.0;34.5;12;2025-05-13;14:53:06;51.935535;4.194827;-11942.659180;-6899.167969;6.8;346.82;36.30;7.77;27.0;399.00;399.00;399.00;399.00;
425399;101848;-43.52;32.0;0.824;-0.283;-9.879;0.137;-0.069;0.023;-5.214;76.887;65.013;2.5;-4.4;271.9;34.5;12;2025-05-13;14:53:06;51.935535;4.194827;-11942.659180;-6899.167969;6.8;346.82;31.04;7.18;27.0;399.00;399.00;399.00;399.00;
425499;101847;-43.38;32.0;1.365;-0.436;-10.841;0.144;-0.043;0.006;-4.675;77.066;64.492;2.5;-4.5;271.9;34.5;12;2025-05-13;14:53:06;51.935535;4.194827;-11942.659180;-6899.167969;6.8;346.82;33.14;7.42;27.0;399.00;399.00;399.00;399.00;
425599;101847;-43.43;32.0;1.729;-0.934;-11.928;0.000;-0.039;-0.022;-4.675;77.066;64.492;2.6;-4.6;271.8;34.5;12;2025-05-13;14:53:07;51.935535;4.194828;-11942.648438;-6899.186523;6.8;346.82;31.04;7.18;27.0;399.00;399.00;399.00;399.00;
425699;101845;-43.26;32.0;1.767;-0.397;-11.229;-0.119;-0.059;-0.067;-4.675;77.066;64.492;2.5;-4.7;271.8;34.5;12;2025-05-13;14:53:07;51.935535;4.194828;-11942.648438;-6899.186523;6.6;346.82;37.35;7.88;27.0;399.00;399.00;399.00;399.00;
425799;101845;-43.26;32.0;1.101;-0.005;-9.275;-0.079;-0.053;-0.081;-4.675;77.066;64.492;2.4;-4.8;271.7;34.4;12;2025-05-13;14:53:07;51.935535;4.194828;-11942.648438;-6899.186523;6.6;346.82;33.14;7.42;27.0;399.00;399.00;399.00;399.00;
425899;101846;-43.36;32.0;0.757;0.053;-9.304;0.003;-0.063;-0.068;-4.675;77.066;64.492;2.3;-4.7;271.7;34.5;12;2025-05-13;14:53:07;51.935535;4.194828;-11942.648438;-6899.186523;6.6;346.82;36.30;7.77;27.0;399.00;399.00;399.00;399.00;
425999;101847;-43.41;32.0;0.350;0.043;-9.711;0.086;-0.091;-0.015;-4.675;77.066;64.492;2.1;-4.5;271.6;34.5;12;2025-05-13;14:53:07;51.935535;4.194828;-11942.648438;-6899.186523;6.6;346.82;37.35;7.88;27.0;399.00;399.00;399.00;399.00;
426099;101844;-43.13;32.0;0.503;-0.153;-9.907;0.138;-0.100;0.038;-4.675;77.066;64.492;2.1;-4.4;271.6;34.5;12;2025-05-13;14:53:07;51.935535;4.194828;-11942.648438;-6899.186523;6.6;346.82;33.14;7.42;27.0;399.00;399.00;399.00;399.00;
426199;101847;-43.39;32.0;0.742;-0.469;-10.142;0.161;-0.072;0.067;-4.675;77.066;64.492;2.1;-4.3;271.5;34.5;12;2025-05-13;14:53:07;51.935535;4.194828;-11942.648438;-6899.186523;6.6;346.82;36.30;7.77;27.0;399.00;399.00;399.00;399.00;
426299;101847;-43.38;32.0;1.844;-0.766;-12.278;0.035;-0.022;0.023;-4.675;77.066;64.492;2.2;-4.5;271.4;34.5;12;2025-05-13;14:53:07;51.935535;4.194828;-11942.648438;-6899.186523;6.6;346.82;31.04;7.18;27.0;399.00;399.00;399.00;399.00;
426399;101844;-43.18;32.0;1.350;-0.311;-10.271;0.017;-0.066;-0.031;-4.675;77.066;64.492;2.2;-4.6;271.4;34.5;12;2025-05-13;14:53:07;51.935535;4.194828;-11942.648438;-6899.186523;6.6;346.82;36.30;7.77;27.0;399.00;399.00;399.00;399.00;
426499;101846;-43.34;32.0;1.058;-0.498;-10.281;0.040;-0.072;-0.038;-4.675;77.066;64.492;2.2;-4.6;271.3;34.5;12;2025-05-13;14:53:07;51.935535;4.194828;-11942.648438;-6899.186523;6.6;346.82;33.14;7.42;27.0;399.00;399.00;399.00;399.00;
426599;101843;-43.10;32.0;0.503;-0.699;-10.745;0.027;-0.059;-0.005;-4.675;77.066;64.492;2.3;-4.4;271.3;34.5;12;2025-05-13;14:53:08;51.935535;4.194825;-11942.785156;-6899.149414;6.6;346.82;33.14;7.42;27.0;399.00;399.00;399.00;399.00;
426699;101843;-43.10;32.0;1.245;-0.287;-10.334;0.033;-0.072;0.009;-4.675;77.066;64.492;2.3;-4.5;271.2;34.5;12;2025-05-13;14:53:08;51.935535;4.194825;-11942.785156;-6899.149414;6.6;346.82;36.30;7.77;27.0;399.00;399.00;399.00;399.00;
426799;101843;-43.11;32.0;1.269;-0.599;-10.506;0.022;-0.077;-0.016;-4.675;77.066;64.492;2.3;-4.6;271.2;34.5;12;2025-05-13;14:53:08;51.935535;4.194825;-11942.785156;-6899.149414;6.6;346.82;42.61;8.41;27.0;399.00;399.00;399.00;399.00;
426899;101845;-43.28;32.0;0.958;-0.460;-10.381;0.022;-0.065;-0.016;-4.675;77.066;64.492;2.3;-4.5;271.1;34.5;12;2025-05-13;14:53:08;51.935535;4.194825;-11942.785156;-6899.149414;6.6;346.82;36.30;7.77;27.0;399.00;399.00;399.00;399.00;
426999;101846;-43.35;32.0;0.967;-0.541;-10.487;0.029;-0.054;-0.011;-4.675;77.066;64.492;2.4;-4.5;271.1;34.5;12;2025-05-13;14:53:08;51.935535;4.194825;-11942.785156;-6899.149414;6.6;346.82;33.14;7.42;27.0;399.00;399.00;399.00;399.00;
427099;101844;-43.14;32.0;1.149;-0.431;-10.343;0.022;-0.068;-0.012;-4.675;77.066;64.492;2.4;-4.6;271.1;34.5;12;2025-05-13;14:53:08;51.935535;4.194825;-11942.785156;-6899.149414;6.6;346.82;33.14;7.42;27.0;399.00;399.00;399.00;399.00;
427199;101844;-43.17;32.0;0.905;-0.532;-10.425;0.026;-0.068;-0.015;-4.495;78.321;65.013;2.4;-4.5;271.0;34.5;12;2025-05-13;14:53:08;51.935535;4.194825;-11942.785156;-6899.149414;6.6;346.82;39.45;8.10;27.0;399.00;399.00;399.00;399.00;
427299;101846;-43.29;32.0;1.010;-0.464;-10.324;0.022;-0.056;-0.011;-5.394;78.500;64.492;2.4;-4.6;271.0;34.5;12;2025-05-13;14:53:08;51.935535;4.194825;-11942.785156;-6899.149414;6.6;346.82;36.30;7.77;27.0;399.00;399.00;399.00;399.00;
427399;101846;-43.29;32.0;1.058;-0.503;-10.290;0.023;-0.067;-0.013;-5.394;78.500;64.492;2.4;-4.6;270.9;34.6;12;2025-05-13;14:53:08;51.935535;4.194825;-11942.785156;-6899.149414;6.6;346.82;37.35;7.88;27.0;399.00;399.00;399.00;399.00;
427499;101846;-43.31;32.0;1.001;-0.536;-10.391;0.023;-0.063;-0.016;-5.394;78.500;64.492;2.5;-4.6;270.9;34.6;12;2025-05-13;14:53:08;51.935535;4.194825;-11942.785156;-6899.149414;6.6;346.82;33.14;7.42;27.0;399.00;399.00;399.00;399.00;
427599;101844;-43.20;32.0;1.020;-0.503;-10.353;0.025;-0.060;-0.012;-5.394;78.500;64.492;2.5;-4.6;270.9;34.5;12;2025-05-13;14:53:09;51.935535;4.194822;-11943.001953;-6899.093750;6.6;346.82;33.14;7.42;27.0;399.00;399.00;399.00;399.00;
427699;101843;-43.10;32.0;1.082;-0.455;-10.453;0.022;-0.065;-0.012;-5.394;78.500;64.492;2.5;-4.7;270.9;34.5;12;2025-05-13;14:53:09;51.935535;4.194822;-11943.001953;-6899.093750;6.4;346.82;33.14;7.42;27.0;399.00;399.00;399.00;399.00;
427799;101845;-43.22;32.0;0.958;-0.474;-10.401;0.025;-0.064;-0.014;-5.394;78.500;64.492;2.5;-4.7;270.8;34.5;12;2025-05-13;14:53:09;51.935535;4.194822;-11943.001953;-6899.093750;6.4;346.82;36.30;7.77;27.0;399.00;399.00;399.00;399.00;
427899;101844;-43.16;32.0;1.015;-0.479;-10.334;0.023;-0.064;-0.013;-5.394;78.500;64.492;2.5;-4.7;270.8;34.5;12;2025-05-13;14:53:09;51.935535;4.194822;-11943.001953;-6899.093750;6.4;346.82;33.14;7.42;27.0;399.00;399.00;399.00;399.00;
427999;101847;-43.40;32.0;0.991;-0.522;-10.410;0.023;-0.066;-0.014;-5.394;78.500;64.492;2.5;-4.7;270.8;34.5;12;2025-05-13;14:53:09;51.935535;4.194822;-11943.001953;-6899.093750;6.4;346.82;31.04;7.18;27.0;399.00;399.00;399.00;399.00;
428099;101846;-43.34;32.0;0.761;-0.512;-10.219;0.043;-0.068;-0.014;-5.394;78.500;64.492;2.5;-4.6;270.8;34.5;12;2025-05-13;14:53:09;51.935535;4.194822;-11943.001953;-6899.093750;6.4;346.82;36.30;7.77;27.0;399.00;399.00;399.00;399.00;
428199;101847;-43.38;32.0;0.982;-0.560;-10.458;0.028;-0.061;-0.012;-5.394;78.500;64.492;2.6;-4.6;270.7;34.5;12;2025-05-13;14:53:09;51.935535;4.194822;-11943.001953;-6899.093750;6.4;346.82;36.30;7.77;27.0;399.00;399.00;399.00;399.00;
428299;101845;-43.28;32.0;0.881;-0.555;-10.334;0.025;-0.064;-0.014;-5.394;78.500;64.492;2.6;-4.6;270.7;34.5;12;2025-05-13;14:53:09;51.935535;4.194822;-11943.001953;-6899.093750;6.4;346.82;37.35;7.88;27.0;399.00;399.00;399.00;399.00;
428399;101844;-43.14;32.0;0.948;-0.503;-10.401;0.027;-0.064;-0.007;-5.394;78.500;64.492;2.6;-4.6;270.7;34.5;12;2025-05-13;14:53:09;51.935535;4.194822;-11943.001953;-6899.093750;6.4;346.82;36.30;7.77;27.0;399.00;399.00;399.00;399.00;
428499;101844;-43.19;32.0;1.087;-0.541;-10.415;0.022;-0.061;-0.012;-5.394;78.500;64.492;2.6;-4.7;270.7;34.5;12;2025-05-13;14:53:09;51.935535;4.194822;-11943.001953;-6899.093750;6.4;346.82;37.35;7.88;27.0;399.00;399.00;399.00;399.00;
428599;101843;-43.10;32.0;1.015;-0.431;-10.233;0.025;-0.072;-0.020;-5.394;78.500;64.492;2.6;-4.7;270.7;34.5;12;2025-05-13;14:53:10;51.935535;4.194821;-11943.059570;-6899.056641;6.4;346.82;36.30;7.77;27.0;399.00;399.00;399.00;399.00;
428699;101845;-43.24;32.0;0.766;-0.565;-10.401;0.026;-0.062;-0.011;-5.394;78.500;64.492;2.7;-4.6;270.6;34.5;12;2025-05-13;14:53:10;51.935535;4.194821;-11943.059570;-6899.056641;6.4;346.82;37.35;7.88;27.0;399.00;399.00;399.00;399.00;
428799;101845;-43.23;32.0;1.092;-0.464;-10.453;0.025;-0.059;-0.009;-5.394;78.500;64.492;2.6;-4.7;270.6;34.5;12;2025-05-13;14:53:10;51.935535;4.194821;-11943.059570;-6899.056641;6.4;346.82;37.35;7.88;27.0;399.00;399.00;399.00;399.00;
428899;101846;-43.34;32.0;1.049;-0.450;-10.377;0.025;-0.070;-0.019;-5.394;78.500;64.492;2.6;-4.7;270.6;34.5;12;2025-05-13;14:53:10;51.935535;4.194821;-11943.059570;-6899.056641;6.4;346.82;37.35;7.88;27.0;399.00;399.00;399.00;399.00;
428999;101846;-43.32;32.0;0.867;-0.546;-10.415;0.023;-0.063;-0.013;-5.394;78.500;64.492;2.7;-4.7;270.6;34.5;12;2025-05-13;14:53:10;51.935535;4.194821;-11943.059570;-6899.056641;6.4;346.82;36.30;7.77;27.0;399.00;399.00;399.00;399.00;
429099;101846;-43.31;32.0;1.049;-0.527;-10.377;0.022;-0.065;-0.011;-5.394;78.500;64.492;2.7;-4.7;270.6;34.4;12;2025-05-13;14:53:10;51.935535;4.194821;-11943.059570;-6899.056641;6.4;346.82;36.30;7.77;27.0;399.00;399.00;399.00;399.00;
429199;101848;-43.52;32.0;1.006;-0.479;-10.353;0.022;-0.070;-0.018;-5.394;78.500;64.492;2.7;-4.7;270.5;34.5;12;2025-05-13;14:53:10;51.935535;4.194821;-11943.059570;-6899.056641;6.4;346.82;40.51;8.20;27.0;399.00;399.00;399.00;399.00;
429299;101848;-43.45;32.0;0.972;-0.474;-10.377;0.023;-0.063;-0.015;-5.394;79.217;65.533;2.7;-4.7;270.5;34.5;12;2025-05-13;14:53:10;51.935535;4.194821;-11943.059570;-6899.056641;6.4;346.82;28.93;6.93;27.0;399.00;399.00;399.00;399.00;
429399;101846;-43.34;32.0;1.020;-0.527;-10.429;0.026;-0.063;-0.012;-3.237;78.859;62.759;2.7;-4.7;270.5;34.5;12;2025-05-13;14:53:10;51.935535;4.194821;-11943.059570;-6899.056641;6.4;346.82;36.30;7.77;27.0;399.00;399.00;399.00;399.00;
429499;101845;-43.23;32.0;0.977;-0.517;-10.348;0.026;-0.068;-0.018;-3.237;78.859;62.759;2.7;-4.7;270.4;34.5;12;2025-05-13;14:53:10;51.935535;4.194821;-11943.059570;-6899.056641;6.4;346.82;36.30;7.77;27.0;399.00;399.00;399.00;399.00;
429599;101846;-43.32;32.0;0.962;-0.488;-10.396;0.026;-0.064;-0.014;-3.237;78.859;62.759;2.7;-4.7;270.3;34.5;12;2025-05-13;14:53:11;51.935539;4.194822;-11943.013672;-6898.982422;6.4;346.82;37.35;7.88;27.0;399.00;399.00;399.00;399.00;
429699;101847;-43.41;32.0;0.991;-0.522;-10.305;0.023;-0.068;-0.015;-3.237;78.859;62.759;2.7;-4.7;270.3;34.5;12;2025-05-13;14:53:11;51.935539;4.194822;-11943.013672;-6898.982422;6.5;346.82;36.30;7.77;27.0;399.00;399.00;399.00;399.00;
429799;101847;-43.43;32.0;0.977;-0.512;-10.329;0.022;-0.068;-0.015;-3.237;78.859;62.759;2.7;-4.6;270.2;34.5;12;2025-05-13;14:53:11;51.935539;4.194822;-11943.013672;-6898.982422;6.5;346.82;31.04;7.18;27.0;399.00;399.00;399.00;399.00;
429899;101844;-43.19;32.0;0.991;-0.498;-10.420;0.021;-0.063;-0.014;-3.237;78.859;62.759;2.7;-4.6;270.2;34.5;12;2025-05-13;14:53:11;51.935539;4.194822;-11943.013672;-6898.982422;6.5;346.82;36.30;7.77;27.0;399.00;399.00;399.00;399.00;
429999;101845;-43.27;32.0;0.996;-0.503;-10.367;0.026;-0.066;-0.018;-3.237;78.859;62.759;2.7;-4.6;270.1;34.5;12;2025-05-13;14:53:11;51.935539;4.194822;-11943.013672;-6898.982422;6.5;346.82;36.30;7.77;27.0;399.00;399.00;399.00;399.00;
430099;101845;-43.27;32.0;0.991;-0.498;-10.300;0.023;-0.063;-0.016;-3.237;78.859;62.759;2.7;-4.6;270.1;34.5;12;2025-05-13;14:53:11;51.935539;4.194822;-11943.013672;-6898.982422;6.5;346.82;36.30;7.77;27.0;399.00;399.00;399.00;399.00;
430199;101844;-43.17;32.0;1.006;-0.484;-10.420;0.022;-0.065;-0.013;-3.237;78.859;62.759;2.7;-4.6;270.0;34.5;12;2025-05-13;14:53:11;51.935539;4.194822;-11943.013672;-6898.982422;6.5;346.82;31.04;7.18;27.0;399.00;399.00;399.00;399.00;
430299;101846;-43.32;32.0;0.986;-0.541;-10.468;0.021;-0.065;-0.014;-3.237;78.859;62.759;2.7;-4.6;270.0;34.5;12;2025-05-13;14:53:11;51.935539;4.194822;-11943.013672;-6898.982422;6.5;346.82;33.14;7.42;27.0;399.00;399.00;399.00;399.00;
430399;101846;-43.36;32.0;1.010;-0.493;-10.420;0.022;-0.063;-0.013;-3.237;78.859;62.759;2.7;-4.6;270.0;34.5;12;2025-05-13;14:53:11;51.935539;4.194822;-11943.013672;-6898.982422;6.5;346.82;33.14;7.42;27.0;399.00;399.00;399.00;399.00;
430499;101843;-43.08;32.0;1.025;-0.484;-10.434;0.025;-0.069;-0.013;-3.237;78.859;62.759;2.7;-4.6;269.9;34.5;12;2025-05-13;14:53:11;51.935539;4.194822;-11943.013672;-6898.982422;6.5;346.82;36.30;7.77;27.0;399.00;399.00;399.00;399.00;
430599;101844;-43.12;32.0;0.958;-0.455;-10.338;0.022;-0.065;-0.010;-3.237;78.859;62.759;2.7;-4.6;269.9;34.5;12;2025-05-13;14:53:12;51.935539;4.194821;-11943.047852;-6898.926758;6.5;346.82;33.14;7.42;27.0;399.00;399.00;399.00;399.00;
430699;101843;-43.09;32.0;1.030;-0.508;-10.386;0.018;-0.066;-0.014;-3.237;78.859;62.759;2.7;-4.6;269.8;34.5;12;2025-05-13;14:53:12;51.935539;4.194821;-11943.047852;-6898.926758;6.3;346.82;36.30;7.77;27.0;399.00;399.00;399.00;399.00;
430799;101840;-42.83;32.0;0.991;-0.479;-10.305;0.023;-0.060;-0.014;-3.237;78.859;62.759;2.7;-4.6;269.8;34.5;12;2025-05-13;14:53:12;51.935539;4.194821;-11943.047852;-6898.926758;6.3;346.82;36.30;7.77;27.0;399.00;399.00;399.00;399.00;
430899;101845;-43.22;32.0;1.001;-0.488;-10.439;0.022;-0.062;-0.015;-3.237;78.859;62.759;2.7;-4.6;269.8;34.5;12;2025-05-13;14:53:12;51.935539;4.194821;-11943.047852;-6898.926758;6.3;346.82;36.30;7.77;27.0;399.00;399.00;399.00;399.00;
430999;101845;-43.21;32.0;1.020;-0.488;-10.381;0.022;-0.067;-0.013;-3.237;78.859;62.759;2.7;-4.6;269.7;34.5;12;2025-05-13;14:53:12;51.935539;4.194821;-11943.047852;-6898.926758;6.3;346.82;33.14;7.42;27.0;399.00;399.00;399.00;399.00;
431099;101844;-43.19;32.0;0.962;-0.512;-10.425;0.022;-0.064;-0.017;-5.394;79.934;62.412;2.7;-4.7;269.7;34.5;12;2025-05-13;14:53:12;51.935539;4.194821;-11943.047852;-6898.926758;6.3;346.82;33.14;7.42;27.0;399.00;399.00;399.00;399.00;
431199;101844;-43.17;32.0;1.001;-0.517;-10.396;0.023;-0.062;-0.016;-3.956;78.859;64.839;2.7;-4.7;269.7;34.5;12;2025-05-13;14:53:12;51.935539;4.194821;-11943.047852;-6898.926758;6.3;346.82;33.14;7.42;27.0;399.00;399.00;399.00;399.00;
431299;101841;-42.93;32.0;0.986;-0.522;-10.334;0.022;-0.070;-0.011;-3.956;78.859;64.839;2.8;-4.7;269.7;34.5;12;2025-05-13;14:53:12;51.935539;4.194821;-11943.047852;-6898.926758;6.3;346.82;37.35;7.88;27.0;399.00;399.00;399.00;399.00;
431399;101844;-43.18;32.0;0.972;-0.570;-10.396;0.026;-0.067;-0.013;-3.956;78.859;64.839;2.8;-4.7;269.7;34.4;12;2025-05-13;14:53:12;51.935539;4.194821;-11943.047852;-6898.926758;6.3;346.82;36.30;7.77;27.0;399.00;399.00;399.00;399.00;
431499;101842;-42.98;32.0;1.034;-0.565;-10.425;0.025;-0.061;-0.018;-3.956;78.859;64.839;2.8;-4.7;269.6;34.5;12;2025-05-13;14:53:12;51.935539;4.194821;-11943.047852;-6898.926758;6.3;346.82;37.35;7.88;27.0;399.00;399.00;399.00;399.00;
431599;101844;-43.17;32.0;0.967;-0.517;-10.391;0.027;-0.068;-0.013;-3.956;78.859;64.839;2.8;-4.7;269.6;34.5;12;2025-05-13;14:53:13;51.935539;4.194819;-11943.185547;-6898.871094;6.3;346.82;40.51;8.20;27.0;399.00;399.00;399.00;399.00;
431699;101846;-43.37;32.0;0.986;-0.522;-10.415;0.020;-0.065;-0.015;-3.956;78.859;64.839;2.8;-4.7;269.6;34.5;12;2025-05-13;14:53:13;51.935539;4.194819;-11943.185547;-6898.871094;5.9;346.82;37.35;7.88;27.0;399.00;399.00;399.00;399.00;
431799;101846;-43.34;32.0;1.015;-0.474;-10.458;0.023;-0.064;-0.015;-3.956;78.859;64.839;2.8;-4.7;269.6;34.5;12;2025-05-13;14:53:13;51.935539;4.194819;-11943.185547;-6898.871094;5.9;346.82;33.14;7.42;27.0;399.00;399.00;399.00;399.00;
431899;101843;-43.07;32.0;1.015;-0.503;-10.396;0.023;-0.067;-0.014;-3.956;78.859;64.839;2.8;-4.7;269.5;34.5;12;2025-05-13;14:53:13;51.935539;4.194819;-11943.185547;-6898.871094;5.9;346.82;37.35;7.88;27.0;399.00;399.00;399.00;399.00;
431999;101845;-43.24;32.0;1.015;-0.508;-10.357;0.021;-0.064;-0.013;-3.956;78.859;64.839;2.8;-4.8;269.5;34.5;12;2025-05-13;14:53:13;51.935539;4.194819;-11943.185547;-6898.871094;5.9;346.82;40.51;8.20;27.0;399.00;399.00;399.00;399.00;
432099;101843;-43.07;32.0;1.015;-0.455;-10.410;0.023;-0.063;-0.014;-3.956;78.859;64.839;2.8;-4.8;269.5;34.5;12;2025-05-13;14:53:13;51.935539;4.194819;-11943.185547;-6898.871094;5.9;346.82;39.45;8.10;27.0;399.00;399.00;399.00;399.00;
432199;101844;-43.13;32.0;0.972;-0.536;-10.405;0.022;-0.064;-0.012;-3.956;78.859;64.839;2.8;-4.8;269.5;34.5;12;2025-05-13;14:53:13;51.935539;4.194819;-11943.185547;-6898.871094;5.9;346.82;37.35;7.88;27.0;399.00;399.00;399.00;399.00;
432299;101844;-43.13;32.0;1.025;-0.445;-10.372;0.026;-0.066;-0.017;-3.956;78.859;64.839;2.8;-4.8;269.5;34.5;12;2025-05-13;14:53:13;51.935539;4.194819;-11943.185547;-6898.871094;5.9;346.82;37.35;7.88;27.0;399.00;399.00;399.00;399.00;
432399;101844;-43.16;32.0;1.006;-0.488;-10.357;0.021;-0.066;-0.011;-3.956;78.859;64.839;2.8;-4.8;269.4;34.5;12;2025-05-13;14:53:13;51.935539;4.194819;-11943.185547;-6898.871094;5.9;346.82;39.45;8.10;27.0;399.00;399.00;399.00;399.00;
432499;101847;-43.41;32.0;0.967;-0.493;-10.401;0.022;-0.065;-0.017;-3.956;78.859;64.839;2.8;-4.8;269.4;34.5;12;2025-05-13;14:53:13;51.935539;4.194819;-11943.185547;-6898.871094;5.9;346.82;37.35;7.88;27.0;399.00;399.00;399.00;399.00;
432599;101845;-43.27;32.0;1.015;-0.469;-10.357;0.025;-0.067;-0.013;-3.956;78.859;64.839;2.8;-4.8;269.4;34.5;12;2025-05-13;14:53:14;51.935539;4.194819;-11943.230469;-6898.852539;5.9;346.82;37.35;7.88;27.0;399.00;399.00;399.00;399.00;
432699;101844;-43.19;32.0;1.015;-0.474;-10.391;0.026;-0.066;-0.015;-3.956;78.859;64.839;2.8;-4.8;269.4;34.5;12;2025-05-13;14:53:14;51.935539;4.194819;-11943.230469;-6898.852539;5.9;346.82;39.45;8.10;27.0;399.00;399.00;399.00;399.00;
432799;101844;-43.15;32.0;0.958;-0.498;-10.396;0.023;-0.061;-0.013;-3.956;78.859;64.839;2.8;-4.8;269.4;34.5;12;2025-05-13;14:53:14;51.935539;4.194819;-11943.230469;-6898.852539;5.9;346.82;33.14;7.42;27.0;399.00;399.00;399.00;399.00;
432899;101844;-43.14;32.0;0.991;-0.469;-10.348;0.023;-0.069;-0.009;-3.956;78.859;64.839;2.8;-4.8;269.3;34.5;12;2025-05-13;14:53:14;51.935539;4.194819;-11943.230469;-6898.852539;5.9;346.82;31.04;7.18;27.0;399.00;399.00;399.00;399.00;
432999;101844;-43.20;32.0;1.010;-0.546;-10.415;0.025;-0.058;-0.014;-3.956;78.859;64.839;2.8;-4.8;269.3;34.5;12;2025-05-13;14:53:14;51.935539;4.194819;-11943.230469;-6898.852539;5.9;346.82;37.35;7.88;27.0;399.00;399.00;399.00;399.00;
433099;101843;-43.08;32.0;0.982;-0.426;-10.396;0.022;-0.065;-0.012;-3.956;78.859;64.839;2.8;-4.8;269.3;34.5;12;2025-05-13;14:53:14;51.935539;4.194819;-11943.230469;-6898.852539;5.9;346.82;37.35;7.88;27.0;399.00;399.00;399.00;399.00;
433199;101845;-43.27;32.0;1.006;-0.508;-10.458;0.022;-0.068;-0.012;-3.416;78.321;62.932;2.8;-4.8;269.3;34.5;12;2025-05-13;14:53:14;51.935539;4.194819;-11943.230469;-6898.852539;5.9;346.82;37.35;7.88;27.0;399.00;399.00;399.00;399.00;
433299;101845;-43.27;32.0;0.967;-0.503;-10.353;0.023;-0.063;-0.014;-5.035;80.292;65.186;2.8;-4.9;269.3;34.5;12;2025-05-13;14:53:14;51.935539;4.194819;-11943.230469;-6898.852539;5.9;346.82;37.35;7.88;27.0;399.00;399.00;399.00;399.00;
433399;101848;-43.46;32.0;0.939;-0.484;-10.338;0.023;-0.065;-0.013;-5.035;80.292;65.186;2.8;-4.9;269.3;34.5;12;2025-05-13;14:53:14;51.935539;4.194819;-11943.230469;-6898.852539;5.9;346.82;36.30;7.77;27.0;399.00;399.00;399.00;399.00;
433499;101844;-43.17;32.0;1.015;-0.565;-10.396;0.027;-0.066;-0.015;-5.035;80.292;65.186;2.8;-4.9;269.3;34.6;12;2025-05-13;14:53:14;51.935539;4.194819;-11943.230469;-6898.852539;5.9;346.82;39.45;8.10;27.0;399.00;399.00;399.00;399.00;
433599;101844;-43.19;32.0;0.977;-0.522;-10.386;0.028;-0.065;-0.015;-5.035;80.292;65.186;2.8;-4.9;269.3;34.5;12;2025-05-13;14:53:15;51.935539;4.194818;-11943.299805;-6898.815430;5.9;346.82;39.45;8.10;27.0;399.00;399.00;399.00;399.00;
433699;101844;-43.14;32.0;1.010;-0.512;-10.396;0.026;-0.061;-0.012;-5.035;80.292;65.186;2.8;-4.9;269.3;34.5;12;2025-05-13;14:53:15;51.935539;4.194818;-11943.299805;-6898.815430;5.5;346.82;36.30;7.77;27.0;399.00;399.00;399.00;399.00;
433799;101846;-43.32;32.0;1.034;-0.532;-10.401;0.021;-0.068;-0.015;-5.035;80.292;65.186;2.8;-5.0;269.3;34.5;12;2025-05-13;14:53:15;51.935539;4.194818;-11943.299805;-6898.815430;5.5;346.82;36.30;7.77;27.0;399.00;399.00;399.00;399.00;
433899;101846;-43.34;32.0;1.001;-0.464;-10.386;0.023;-0.062;-0.017;-5.035;80.292;65.186;2.8;-5.0;269.3;34.5;12;2025-05-13;14:53:15;51.935539;4.194818;-11943.299805;-6898.815430;5.5;346.82;37.35;7.88;27.0;399.00;399.00;399.00;399.00;
433999;101846;-43.32;32.0;1.006;-0.488;-10.410;0.025;-0.064;-0.015;-5.035;80.292;65.186;2.8;-5.0;269.3;34.5;12;2025-05-13;14:53:15;51.935539;4.194818;-11943.299805;-6898.815430;5.5;346.82;31.04;7.18;27.0;399.00;399.00;399.00;399.00;
434099;101846;-43.33;32.0;1.001;-0.436;-10.391;0.026;-0.069;-0.010;-5.035;80.292;65.186;2.8;-5.0;269.3;34.5;12;2025-05-13;14:53:15;51.935539;4.194818;-11943.299805;-6898.815430;5.5;346.82;33.14;7.42;27.0;399.00;399.00;399.00;399.00;
434199;101846;-43.29;32.0;1.030;-0.498;-10.405;0.026;-0.066;-0.015;-5.035;80.292;65.186;2.8;-5.1;269.3;34.5;12;2025-05-13;14:53:15;51.935539;4.194818;-11943.299805;-6898.815430;5.5;346.82;33.14;7.42;27.0;399.00;399.00;399.00;399.00;
434299;101845;-43.28;32.0;0.991;-0.460;-10.329;0.019;-0.063;-0.012;-5.035;80.292;65.186;2.8;-5.1;269.3;34.5;12;2025-05-13;14:53:15;51.935539;4.194818;-11943.299805;-6898.815430;5.5;346.82;37.35;7.88;27.0;399.00;399.00;399.00;399.00;
434399;101846;-43.34;32.0;0.986;-0.541;-10.391;0.021;-0.064;-0.012;-5.035;80.292;65.186;2.8;-5.1;269.3;34.5;12;2025-05-13;14:53:15;51.935539;4.194818;-11943.299805;-6898.815430;5.5;346.82;37.35;7.88;27.0;399.00;399.00;399.00;399.00;
434499;101846;-43.34;32.0;1.010;-0.503;-10.425;0.026;-0.066;-0.016;-5.035;80.292;65.186;2.8;-5.1;269.3;34.5;12;2025-05-13;14:53:15;51.935539;4.194818;-11943.299805;-6898.815430;5.5;346.82;39.45;8.10;27.0;399.00;399.00;399.00;399.00;
434599;101844;-43.16;32.0;0.986;-0.508;-10.377;0.025;-0.065;-0.014;-5.035;80.292;65.186;2.8;-5.1;269.3;34.5;12;2025-05-13;14:53:16;51.935539;4.194816;-11943.402344;-6898.833984;5.5;346.82;31.04;7.18;27.0;399.00;399.00;399.00;399.00;
434699;101844;-43.18;32.0;0.972;-0.460;-10.353;0.021;-0.064;-0.015;-5.035;80.292;65.186;2.8;-5.1;269.3;34.5;12;2025-05-13;14:53:16;51.935539;4.194816;-11943.402344;-6898.833984;5.2;346.82;39.45;8.10;27.0;399.00;399.00;399.00;399.00;
434799;101846;-43.31;32.0;1.015;-0.527;-10.357;0.026;-0.064;-0.016;-5.035;80.292;65.186;2.8;-5.1;269.3;34.5;12;2025-05-13;14:53:16;51.935539;4.194816;-11943.402344;-6898.833984;5.2;346.82;37.35;7.88;27.0;399.00;399.00;399.00;399.00;
434899;101845;-43.23;32.0;1.044;-0.464;-10.405;0.026;-0.069;-0.010;-5.035;80.292;65.186;2.8;-5.1;269.3;34.5;12;2025-05-13;14:53:16;51.935539;4.194816;-11943.402344;-6898.833984;5.2;346.82;31.04;7.18;27.0;399.00;399.00;399.00;399.00;
434999;101845;-43.25;32.0;0.991;-0.498;-10.372;0.021;-0.063;-0.011;-3.776;79.038;64.666;2.8;-5.1;269.3;34.5;12;2025-05-13;14:53:16;51.935539;4.194816;-11943.402344;-6898.833984;5.2;346.82;28.93;6.93;27.0;399.00;399.00;399.00;399.00;
435099;101846;-43.31;32.0;1.034;-0.488;-10.415;0.022;-0.064;-0.013;-5.035;78.142;63.452;2.8;-5.1;269.3;34.5;12;2025-05-13;14:53:16;51.935539;4.194816;-11943.402344;-6898.833984;5.2;346.82;39.45;8.10;27.0;399.00;399.00;399.00;399.00;
435199;101847;-43.38;32.0;0.996;-0.493;-10.362;0.023;-0.065;-0.014;-5.035;78.142;63.452;2.8;-5.1;269.3;34.5;12;2025-05-13;14:53:16;51.935539;4.194816;-11943.402344;-6898.833984;5.2;346.82;37.35;7.88;27.0;399.00;399.00;399.00;399.00;
435299;101846;-43.37;32.0;0.982;-0.460;-10.357;0.021;-0.064;-0.015;-5.035;78.142;63.452;2.8;-5.2;269.3;34.5;12;2025-05-13;14:53:16;51.935539;4.194816;-11943.402344;-6898.833984;5.2;346.82;36.30;7.77;27.0;399.00;399.00;399.00;399.00;
435399;101846;-43.33;32.0;0.967;-0.498;-10.444;0.025;-0.062;-0.011;-5.035;78.142;63.452;2.8;-5.2;269.3;34.5;12;2025-05-13;14:53:16;51.935539;4.194816;-11943.402344;-6898.833984;5.2;346.82;36.30;7.77;27.0;399.00;399.00;399.00;399.00;
435499;101846;-43.35;32.0;0.977;-0.488;-10.381;0.023;-0.062;-0.011;-5.035;78.142;63.452;2.8;-5.2;269.3;34.5;12;2025-05-13;14:53:16;51.935539;4.194816;-11943.402344;-6898.833984;5.2;346.82;33.14;7.42;27.0;399.00;399.00;399.00;399.00;
435599;101845;-43.21;32.0;0.986;-0.517;-10.405;0.023;-0.067;-0.016;-5.035;78.142;63.452;2.8;-5.2;269.3;34.5;12;2025-05-13;14:53:17;51.935539;4.194815;-11943.482422;-6898.833984;5.2;346.82;39.45;8.10;27.0;399.00;399.00;399.00;399.00;
435699;101849;-43.54;32.0;1.001;-0.474;-10.357;0.023;-0.064;-0.015;-5.035;78.142;63.452;2.8;-5.2;269.3;34.5;12;2025-05-13;14:53:17;51.935539;4.194815;-11943.482422;-6898.833984;5.0;346.82;37.35;7.88;27.0;399.00;399.00;399.00;399.00;
435799;101847;-43.41;32.0;1.001;-0.546;-10.401;0.027;-0.066;-0.015;-5.035;78.142;63.452;2.8;-5.2;269.3;34.5;12;2025-05-13;14:53:17;51.935539;4.194815;-11943.482422;-6898.833984;5.0;346.82;37.35;7.88;27.0;399.00;399.00;399.00;399.00;
435899;101847;-43.44;32.0;0.991;-0.503;-10.329;0.023;-0.066;-0.013;-5.035;78.142;63.452;2.8;-5.2;269.3;34.6;12;2025-05-13;14:53:17;51.935539;4.194815;-11943.482422;-6898.833984;5.0;346.82;39.45;8.10;27.0;399.00;399.00;399.00;399.00;
435999;101843;-43.04;32.0;0.996;-0.536;-10.463;0.023;-0.064;-0.013;-5.035;78.142;63.452;2.8;-5.2;269.3;34.5;12;2025-05-13;14:53:17;51.935539;4.194815;-11943.482422;-6898.833984;5.0;346.82;39.45;8.10;27.0;399.00;399.00;399.00;399.00;
436099;101847;-43.40;32.0;0.982;-0.532;-10.353;0.023;-0.064;-0.013;-5.035;78.142;63.452;2.8;-5.2;269.3;34.5;12;2025-05-13;14:53:17;51.935539;4.194815;-11943.482422;-6898.833984;5.0;346.82;39.45;8.10;27.0;399.00;399.00;399.00;399.00;
436199;101846;-43.30;32.0;1.015;-0.498;-10.415;0.022;-0.062;-0.015;-5.035;78.142;63.452;2.8;-5.2;269.3;34.5;12;2025-05-13;14:53:17;51.935539;4.194815;-11943.482422;-6898.833984;5.0;346.82;36.30;7.77;27.0;399.00;399.00;399.00;399.00;
436299;101846;-43.33;32.0;1.034;-0.517;-10.338;0.015;-0.061;-0.011;-5.035;78.142;63.452;2.8;-5.2;269.3;34.6;12;2025-05-13;14:53:17;51.935539;4.194815;-11943.482422;-6898.833984;5.0;346.82;31.04;7.18;27.0;399.00;399.00;399.00;399.00;
436399;101844;-43.16;32.0;1.034;-0.460;-10.425;0.022;-0.065;-0.014;-5.035;78.142;63.452;2.8;-5.2;269.3;34.5;12;2025-05-13;14:53:17;51.935539;4.194815;-11943.482422;-6898.833984;5.0;346.82;31.04;7.18;27.0;399.00;399.00;399.00;399.00;
436499;101846;-43.30;32.0;1.044;-0.503;-10.377;0.027;-0.059;-0.012;-5.035;78.142;63.452;2.8;-5.2;269.3;34.5;12;2025-05-13;14:53:17;51.935539;4.194815;-11943.482422;-6898.833984;5.0;346.82;36.30;7.77;27.0;399.00;399.00;399.00;399.00;
436599;101843;-43.10;32.0;0.996;-0.522;-10.410;0.020;-0.064;-0.017;-5.035;78.142;63.452;2.8;-5.2;269.3;34.6;12;2025-05-13;14:53:18;51.935539;4.194814;-11943.539062;-6898.852539;5.0;346.82;37.35;7.88;27.0;399.00;399.00;399.00;399.00;
436699;101845;-43.21;32.0;0.972;-0.503;-10.381;0.023;-0.063;-0.011;-5.035;78.142;63.452;2.8;-5.2;269.3;34.5;12;2025-05-13;14:53:18;51.935539;4.194814;-11943.539062;-6898.852539;4.9;346.82;36.30;7.77;27.0;399.00;399.00;399.00;399.00;
436799;101843;-43.04;32.0;1.020;-0.479;-10.381;0.021;-0.063;-0.013;-5.035;78.142;63.452;2.8;-5.3;269.3;34.5;12;2025-05-13;14:53:18;51.935539;4.194814;-11943.539062;-6898.852539;4.9;346.82;37.35;7.88;27.0;399.00;399.00;399.00;399.00;
436899;101843;-43.11;32.0;0.972;-0.546;-10.425;0.022;-0.062;-0.015;-5.035;78.142;63.452;2.8;-5.2;269.3;34.5;12;2025-05-13;14:53:18;51.935539;4.194814;-11943.539062;-6898.852539;4.9;346.82;36.30;7.77;27.0;399.00;399.00;399.00;399.00;
436999;101846;-43.32;32.0;0.929;-0.522;-10.324;0.021;-0.063;-0.012;-5.035;78.142;63.452;2.8;-5.2;269.3;34.5;12;2025-05-13;14:53:18;51.935539;4.194814;-11943.539062;-6898.852539;4.9;346.82;39.45;8.10;27.0;399.00;399.00;399.00;399.00;
437099;101845;-43.24;32.0;0.986;-0.546;-10.377;0.023;-0.065;-0.012;-4.495;77.962;64.666;2.8;-5.2;269.2;34.6;12;2025-05-13;14:53:18;51.935539;4.194814;-11943.539062;-6898.852539;4.9;346.82;37.35;7.88;27.0;399.00;399.00;399.00;399.00;
437199;101845;-43.21;32.0;0.924;-0.536;-10.348;0.022;-0.063;-0.009;-5.035;77.066;62.412;2.8;-5.2;269.2;34.5;12;2025-05-13;14:53:18;51.935539;4.194814;-11943.539062;-6898.852539;4.9;346.82;36.30;7.77;27.0;399.00;399.00;399.00;399.00;
437299;101844;-43.16;32.0;0.934;-0.517;-10.348;0.022;-0.067;-0.012;-5.035;77.066;62.412;2.8;-5.2;269.2;34.5;12;2025-05-13;14:53:18;51.935539;4.194814;-11943.539062;-6898.852539;4.9;346.82;31.04;7.18;27.0;399.00;399.00;399.00;399.00;
437399;101842;-42.99;32.0;0.958;-0.508;-10.367;0.023;-0.066;-0.015;-5.035;77.066;62.412;2.8;-5.2;269.2;34.5;12;2025-05-13;14:53:18;51.935539;4.194814;-11943.539062;-6898.852539;4.9;346.82;36.30;7.77;27.0;399.00;399.00;399.00;399.00;
437499;101844;-43.17;32.0;0.996;-0.527;-10.353;0.026;-0.064;-0.013;-5.035;77.066;62.412;2.8;-5.2;269.2;34.5;12;2025-05-13;14:53:18;51.935539;4.194814;-11943.539062;-6898.852539;4.9;346.82;31.04;7.18;27.0;399.00;399.00;399.00;399.00;
437599;101844;-43.20;32.0;0.977;-0.555;-10.381;0.025;-0.065;-0.015;-5.035;77.066;62.412;2.9;-5.2;269.2;34.5;12;2025-05-13;14:53:19;51.935539;4.194814;-11943.539062;-6898.889648;4.9;346.82;37.35;7.88;27.0;399.00;399.00;399.00;399.00;
437699;101844;-43.17;32.0;0.958;-0.488;-10.334;0.023;-0.064;-0.016;-5.035;77.066;62.412;2.9;-5.2;269.2;34.5;12;2025-05-13;14:53:19;51.935539;4.194814;-11943.539062;-6898.889648;4.8;346.82;31.04;7.18;27.0;399.00;399.00;399.00;399.00;
437799;101844;-43.20;32.0;0.986;-0.532;-10.386;0.023;-0.062;-0.013;-5.035;77.066;62.412;2.9;-5.2;269.2;34.6;12;2025-05-13;14:53:19;51.935539;4.194814;-11943.539062;-6898.889648;4.8;346.82;36.30;7.77;27.0;399.00;399.00;399.00;399.00;
437899;101844;-43.13;32.0;0.996;-0.503;-10.391;0.023;-0.065;-0.015;-5.035;77.066;62.412;2.9;-5.2;269.2;34.5;12;2025-05-13;14:53:19;51.935539;4.194814;-11943.539062;-6898.889648;4.8;346.82;37.35;7.88;27.0;399.00;399.00;399.00;399.00;
437999;101845;-43.24;32.0;0.924;-0.517;-10.381;0.023;-0.062;-0.013;-5.035;77.066;62.412;2.9;-5.2;269.3;34.5;12;2025-05-13;14:53:19;51.935539;4.194814;-11943.539062;-6898.889648;4.8;346.82;37.35;7.88;27.0;399.00;399.00;399.00;399.00;
438099;101845;-43.23;32.0;0.991;-0.508;-10.410;0.020;-0.066;-0.011;-5.035;77.066;62.412;2.9;-5.2;269.3;34.5;12;2025-05-13;14:53:19;51.935539;4.194814;-11943.539062;-6898.889648;4.8;346.82;36.30;7.77;27.0;399.00;399.00;399.00;399.00;
438199;101844;-43.13;32.0;0.982;-0.546;-10.396;0.026;-0.066;-0.015;-5.035;77.066;62.412;2.9;-5.2;269.3;34.5;12;2025-05-13;14:53:19;51.935539;4.194814;-11943.539062;-6898.889648;4.8;346.82;39.45;8.10;27.0;399.00;399.00;399.00;399.00;
438299;101843;-43.11;32.0;0.996;-0.522;-10.377;0.025;-0.064;-0.013;-5.035;77.066;62.412;2.9;-5.2;269.3;34.6;12;2025-05-13;14:53:19;51.935539;4.194814;-11943.539062;-6898.889648;4.8;346.82;31.04;7.18;27.0;399.00;399.00;399.00;399.00;
438399;101844;-43.15;32.0;1.001;-0.546;-10.386;0.023;-0.063;-0.013;-5.035;77.066;62.412;2.9;-5.2;269.3;34.6;12;2025-05-13;14:53:19;51.935539;4.194814;-11943.539062;-6898.889648;4.8;346.82;31.04;7.18;27.0;399.00;399.00;399.00;399.00;
438499;101844;-43.17;32.0;0.958;-0.503;-10.290;0.028;-0.065;-0.012;-5.035;77.066;62.412;2.9;-5.2;269.3;34.5;12;2025-05-13;14:53:19;51.935539;4.194814;-11943.539062;-6898.889648;4.8;346.82;36.30;7.77;27.0;399.00;399.00;399.00;399.00;
438599;101845;-43.22;32.0;0.972;-0.455;-10.357;0.021;-0.064;-0.012;-5.035;77.066;62.412;2.9;-5.2;269.3;34.5;12;2025-05-13;14:53:20;51.935539;4.194815;-11943.516602;-6898.889648;4.8;346.82;36.30;7.77;27.0;399.00;399.00;399.00;399.00;
438699;101845;-43.22;32.0;0.986;-0.474;-10.391;0.020;-0.064;-0.015;-5.035;77.066;62.412;2.8;-5.2;269.3;34.5;12;2025-05-13;14:53:20;51.935539;4.194815;-11943.516602;-6898.889648;4.9;346.82;36.30;7.77;27.0;399.00;399.00;399.00;399.00;
438799;101845;-43.23;32.0;0.967;-0.464;-10.410;0.019;-0.063;-0.015;-5.035;77.066;62.412;2.8;-5.2;269.3;34.5;12;2025-05-13;14:53:20;51.935539;4.194815;-11943.516602;-6898.889648;4.9;346.82;33.14;7.42;27.0;399.00;399.00;399.00;399.00;
438899;101844;-43.16;32.0;1.030;-0.460;-10.338;0.023;-0.069;-0.012;-5.035;76.708;62.759;2.8;-5.2;269.3;34.5;12;2025-05-13;14:53:20;51.935539;4.194815;-11943.516602;-6898.889648;4.9;346.82;37.35;7.88;27.0;399.00;399.00;399.00;399.00;
438999;101844;-43.16;32.0;1.068;-0.536;-10.362;0.023;-0.066;-0.017;-5.035;76.708;62.759;2.8;-5.3;269.3;34.5;12;2025-05-13;14:53:20;51.935539;4.194815;-11943.516602;-6898.889648;4.9;346.82;33.14;7.42;27.0;399.00;399.00;399.00;399.00;
439099;101844;-43.16;32.0;0.991;-0.431;-10.401;0.023;-0.060;-0.011;-5.035;76.708;62.759;2.8;-5.3;269.3;34.5;12;2025-05-13;14:53:20;51.935539;4.194815;-11943.516602;-6898.889648;4.9;346.82;36.30;7.77;27.0;399.00;399.00;399.00;399.00;
439199;101847;-43.37;32.0;1.010;-0.551;-10.444;0.021;-0.064;-0.013;-5.035;76.708;62.759;2.8;-5.3;269.3;34.5;12;2025-05-13;14:53:20;51.935539;4.194815;-11943.516602;-6898.889648;4.9;346.82;37.35;7.88;27.0;399.00;399.00;399.00;399.00;
439299;101846;-43.32;32.0;1.044;-0.498;-10.391;0.021;-0.063;-0.014;-5.035;76.708;62.759;2.8;-5.3;269.3;34.6;12;2025-05-13;14:53:20;51.935539;4.194815;-11943.516602;-6898.889648;4.9;346.82;31.04;7.18;27.0;399.00;399.00;399.00;399.00;
439399;101842;-43.04;32.0;0.905;-0.555;-10.348;0.023;-0.067;-0.005;-5.035;76.708;62.759;2.8;-5.3;269.3;34.5;12;2025-05-13;14:53:20;51.935539;4.194815;-11943.516602;-6898.889648;4.9;346.82;36.30;7.77;27.0;399.00;399.00;399.00;399.00;
439499;101844;-43.17;32.0;1.010;-0.498;-10.338;0.023;-0.064;-0.017;-5.035;76.708;62.759;2.8;-5.3;269.3;34.5;12;2025-05-13;14:53:20;51.935539;4.194815;-11943.516602;-6898.889648;4.9;346.82;36.30;7.77;27.0;399.00;399.00;399.00;399.00;
439599;101844;-43.19;32.0;0.934;-0.565;-10.444;0.025;-0.064;-0.017;-5.035;76.708;62.759;2.9;-5.2;269.3;34.5;12;2025-05-13;14:53:21;51.935539;4.194815;-11943.470703;-6898.945313;4.9;346.82;36.30;7.77;27.0;399.00;399.00;399.00;399.00;
439699;101847;-43.40;32.0;1.053;-0.503;-10.319;0.023;-0.068;-0.006;-5.035;76.708;62.759;2.9;-5.3;269.3;34.5;12;2025-05-13;14:53:21;51.935539;4.194815;-11943.470703;-6898.945313;4.9;346.82;31.04;7.18;27.0;399.00;399.00;399.00;399.00;
439799;101847;-43.41;32.0;0.982;-0.541;-10.319;0.022;-0.065;-0.015;-5.035;76.708;62.759;2.9;-5.3;269.3;34.5;12;2025-05-13;14:53:21;51.935539;4.194815;-11943.470703;-6898.945313;4.9;346.82;37.35;7.88;27.0;399.00;399.00;399.00;399.00;
439899;101843;-43.09;32.0;0.915;-0.536;-10.425;0.025;-0.060;-0.013;-5.035;76.708;62.759;2.9;-5.2;269.2;34.5;12;2025-05-13;14:53:21;51.935539;4.194815;-11943.470703;-6898.945313;4.9;346.82;37.35;7.88;27.0;399.00;399.00;399.00;399.00;
439999;101846;-43.34;32.0;1.039;-0.464;-10.338;0.023;-0.068;-0.010;-5.035;76.708;62.759;2.9;-5.3;269.3;34.5;12;2025-05-13;14:53:21;51.935539;4.194815;-11943.470703;-6898.945313;4.9;346.82;37.35;7.88;27.0;399.00;399.00;399.00;399.00;
440099;101844;-43.19;32.0;0.943;-0.508;-10.425;0.023;-0.065;-0.015;-5.035;76.708;62.759;2.9;-5.2;269.2;34.6;12;2025-05-13;14:53:21;51.935539;4.194815;-11943.470703;-6898.945313;4.9;346.82;31.04;7.18;27.0;399.00;399.00;399.00;399.00;
440199;101845;-43.27;32.0;0.967;-0.532;-10.381;0.022;-0.060;-0.013;-5.035;76.708;62.759;2.9;-5.2;269.2;34.5;12;2025-05-13;14:53:21;51.935539;4.194815;-11943.470703;-6898.945313;4.9;346.82;37.35;7.88;27.0;399.00;399.00;399.00;399.00;
440299;101843;-43.12;32.0;1.010;-0.551;-10.386;0.023;-0.069;-0.014;-5.035;76.708;62.759;2.9;-5.2;269.2;34.5;12;2025-05-13;14:53:21;51.935539;4.194815;-11943.470703;-6898.945313;4.9;346.82;36.30;7.77;27.0;399.00;399.00;399.00;399.00;
440399;101842;-42.95;32.0;0.977;-0.503;-10.377;0.022;-0.066;-0.019;-5.035;76.708;62.759;2.9;-5.2;269.2;34.5;12;2025-05-13;14:53:21;51.935539;4.194815;-11943.470703;-6898.945313;4.9;346.82;37.35;7.88;27.0;399.00;399.00;399.00;399.00;
440499;101843;-43.09;32.0;1.006;-0.536;-10.492;0.023;-0.059;-0.011;-5.035;76.708;62.759;2.9;-5.2;269.2;34.5;12;2025-05-13;14:53:21;51.935539;4.194815;-11943.470703;-6898.945313;4.9;346.82;33.14;7.42;27.0;399.00;399.00;399.00;399.00;
440599;101845;-43.26;32.0;0.919;-0.503;-10.415;0.021;-0.066;-0.016;-5.035;76.708;62.759;2.9;-5.2;269.2;34.5;12;2025-05-13;14:53:22;51.935539;4.194816;-11943.413086;-6898.833984;4.9;346.82;33.14;7.42;27.0;399.00;399.00;399.00;399.00;
440699;101844;-43.20;32.0;0.934;-0.560;-10.348;0.027;-0.065;-0.011;-5.035;76.708;62.759;2.9;-5.2;269.2;34.5;12;2025-05-13;14:53:22;51.935539;4.194816;-11943.413086;-6898.833984;4.8;346.82;31.04;7.18;27.0;399.00;399.00;399.00;399.00;
440799;101843;-43.06;32.0;0.915;-0.536;-10.439;0.026;-0.063;-0.014;-5.035;76.708;62.759;2.9;-5.2;269.2;34.5;12;2025-05-13;14:53:22;51.935539;4.194816;-11943.413086;-6898.833984;4.8;346.82;36.30;7.77;27.0;399.00;399.00;399.00;399.00;
440899;101846;-43.35;32.0;0.958;-0.560;-10.381;0.025;-0.065;-0.011;-3.237;77.783;63.799;2.9;-5.2;269.2;34.5;12;2025-05-13;14:53:22;51.935539;4.194816;-11943.413086;-6898.833984;4.8;346.82;33.14;7.42;27.0;399.00;399.00;399.00;399.00;
440999;101846;-43.37;32.0;1.001;-0.455;-10.372;0.022;-0.065;-0.012;-5.754;78.142;63.799;2.9;-5.2;269.2;34.5;12;2025-05-13;14:53:22;51.935539;4.194816;-11943.413086;-6898.833984;4.8;346.82;36.30;7.77;27.0;399.00;399.00;399.00;399.00;
441099;101847;-43.42;32.0;0.982;-0.508;-10.410;0.022;-0.065;-0.015;-5.754;78.142;63.799;2.9;-5.2;269.2;34.6;12;2025-05-13;14:53:22;51.935539;4.194816;-11943.413086;-6898.833984;4.8;346.82;31.04;7.18;27.0;399.00;399.00;399.00;399.00;
441199;101846;-43.32;32.0;0.948;-0.532;-10.362;0.026;-0.064;-0.014;-5.754;78.142;63.799;2.9;-5.2;269.3;34.5;12;2025-05-13;14:53:22;51.935539;4.194816;-11943.413086;-6898.833984;4.8;346.82;36.30;7.77;27.0;399.00;399.00;399.00;399.00;
441299;101845;-43.24;32.0;0.986;-0.512;-10.396;0.025;-0.064;-0.012;-5.754;78.142;63.799;2.9;-5.2;269.3;34.5;12;2025-05-13;14:53:22;51.935539;4.194816;-11943.413086;-6898.833984;4.8;346.82;36.30;7.77;27.0;399.00;399.00;399.00;399.00;
441399;101847;-43.38;32.0;1.006;-0.546;-10.405;0.023;-0.064;-0.017;-5.754;78.142;63.799;2.9;-5.2;269.3;34.5;12;2025-05-13;14:53:22;51.935539;4.194816;-11943.413086;-6898.833984;4.8;346.82;33.14;7.42;27.0;399.00;399.00;399.00;399.00;
441499;101845;-43.21;32.0;1.006;-0.503;-10.372;0.025;-0.067;-0.012;-5.754;78.142;63.799;2.9;-5.3;269.3;34.5;12;2025-05-13;14:53:22;51.935539;4.194816;-11943.413086;-6898.833984;4.8;346.82;37.35;7.88;27.0;399.00;399.00;399.00;399.00;
441599;101844;-43.20;32.0;1.006;-0.460;-10.362;0.023;-0.064;-0.014;-5.754;78.142;63.799;2.9;-5.3;269.3;34.5;12;2025-05-13;14:53:23;51.935539;4.194816;-11943.402344;-6898.833984;4.8;346.82;33.14;7.42;27.0;399.00;399.00;399.00;399.00;
441699;101845;-43.21;32.0;0.972;-0.517;-10.386;0.025;-0.063;-0.012;-5.754;78.142;63.799;2.9;-5.3;269.3;34.6;12;2025-05-13;14:53:23;51.935539;4.194816;-11943.402344;-6898.833984;4.7;346.82;36.30;7.77;27.0;399.00;399.00;399.00;399.00;
441799;101845;-43.25;32.0;0.982;-0.527;-10.362;0.025;-0.062;-0.012;-5.754;78.142;63.799;2.9;-5.3;269.3;34.6;12;2025-05-13;14:53:23;51.935539;4.194816;-11943.402344;-6898.833984;4.7;346.82;33.14;7.42;27.0;399.00;399.00;399.00;399.00;
441899;101846;-43.32;32.0;1.020;-0.474;-10.396;0.025;-0.063;-0.012;-5.754;78.142;63.799;2.9;-5.3;269.3;34.5;12;2025-05-13;14:53:23;51.935539;4.194816;-11943.402344;-6898.833984;4.7;346.82;36.30;7.77;27.0;399.00;399.00;399.00;399.00;
441999;101845;-43.21;32.0;1.039;-0.498;-10.276;0.023;-0.064;-0.012;-5.754;78.142;63.799;2.9;-5.3;269.3;34.5;12;2025-05-13;14:53:23;51.935539;4.194816;-11943.402344;-6898.833984;4.7;346.82;37.35;7.88;27.0;399.00;399.00;399.00;399.00;
442099;101847;-43.38;32.0;1.015;-0.474;-10.405;0.023;-0.061;-0.011;-5.754;78.142;63.799;2.9;-5.3;269.4;34.5;12;2025-05-13;14:53:23;51.935539;4.194816;-11943.402344;-6898.833984;4.7;346.82;36.30;7.77;27.0;399.00;399.00;399.00;399.00;
442199;101846;-43.31;32.0;0.977;-0.508;-10.334;0.028;-0.067;-0.015;-5.754;78.142;63.799;2.9;-5.3;269.4;34.5;12;2025-05-13;14:53:23;51.935539;4.194816;-11943.402344;-6898.833984;4.7;346.82;36.30;7.77;27.0;399.00;399.00;399.00;399.00;
442299;101844;-43.18;32.0;0.977;-0.464;-10.314;0.025;-0.064;-0.016;-5.754;78.142;63.799;2.8;-5.3;269.4;34.6;12;2025-05-13;14:53:23;51.935539;4.194816;-11943.402344;-6898.833984;4.7;346.82;36.30;7.77;27.0;399.00;399.00;399.00;399.00;
442399;101845;-43.21;32.0;0.991;-0.474;-10.357;0.026;-0.063;-0.018;-5.754;78.142;63.799;2.8;-5.3;269.4;34.5;12;2025-05-13;14:53:23;51.935539;4.194816;-11943.402344;-6898.833984;4.7;346.82;27.88;6.81;27.0;399.00;399.00;399.00;399.00;
442499;101846;-43.35;32.0;0.991;-0.522;-10.334;0.026;-0.066;-0.013;-5.754;78.142;63.799;2.8;-5.3;269.4;34.5;12;2025-05-13;14:53:23;51.935539;4.194816;-11943.402344;-6898.833984;4.7;346.82;33.14;7.42;27.0;399.00;399.00;399.00;399.00;
442599;101846;-43.35;32.0;1.034;-0.450;-10.300;0.023;-0.065;-0.013;-5.754;78.142;63.799;2.8;-5.4;269.4;34.5;12;2025-05-13;14:53:24;51.935539;4.194816;-11943.413086;-6898.833984;4.7;346.82;33.14;7.42;27.0;399.00;399.00;399.00;399.00;
442699;101848;-43.51;32.0;1.001;-0.479;-10.401;0.021;-0.063;-0.013;-6.293;79.755;65.013;2.8;-5.4;269.4;34.5;12;2025-05-13;14:53:24;51.935539;4.194816;-11943.413086;-6898.833984;4.6;346.82;31.04;7.18;27.0;399.00;399.00;399.00;399.00;
442799;101844;-43.18;32.0;0.958;-0.551;-10.401;0.023;-0.064;-0.015;-3.956;77.783;63.799;2.8;-5.3;269.4;34.5;12;2025-05-13;14:53:24;51.935539;4.194816;-11943.413086;-6898.833984;4.6;346.82;31.04;7.18;27.0;399.00;399.00;399.00;399.00;
442899;101848;-43.47;32.0;0.996;-0.512;-10.401;0.022;-0.061;-0.014;-3.956;77.783;63.799;2.8;-5.3;269.3;34.5;12;2025-05-13;14:53:24;51.935539;4.194816;-11943.413086;-6898.833984;4.6;346.82;31.04;7.18;27.0;399.00;399.00;399.00;399.00;
442999;101845;-43.25;32.0;1.015;-0.551;-10.410;0.027;-0.062;-0.016;-3.956;77.783;63.799;2.8;-5.3;269.3;34.5;12;2025-05-13;14:53:24;51.935539;4.194816;-11943.413086;-6898.833984;4.6;346.82;33.14;7.42;27.0;399.00;399.00;399.00;399.00;
443099;101847;-43.38;32.0;0.996;-0.522;-10.410;0.022;-0.064;-0.014;-3.956;77.783;63.799;2.8;-5.3;269.3;34.5;12;2025-05-13;14:53:24;51.935539;4.194816;-11943.413086;-6898.833984;4.6;346.82;36.30;7.77;27.0;399.00;399.00;399.00;399.00;
443199;101847;-43.38;32.0;0.972;-0.488;-10.362;0.020;-0.068;-0.015;-3.956;77.783;63.799;2.8;-5.2;269.3;34.5;12;2025-05-13;14:53:24;51.935539;4.194816;-11943.413086;-6898.833984;4.6;346.82;33.14;7.42;27.0;399.00;399.00;399.00;399.00;
443299;101846;-43.30;32.0;0.977;-0.469;-10.386;0.025;-0.064;-0.014;-3.956;77.783;63.799;2.8;-5.2;269.2;34.6;12;2025-05-13;14:53:24;51.935539;4.194816;-11943.413086;-6898.833984;4.6;346.82;31.04;7.18;27.0;399.00;399.00;399.00;399.00;
443399;101842;-43.03;32.0;0.939;-0.508;-10.477;0.023;-0.062;-0.013;-3.956;77.783;63.799;2.8;-5.2;269.2;34.5;12;2025-05-13;14:53:24;51.935539;4.194816;-11943.413086;-6898.833984;4.6;346.82;31.04;7.18;27.0;399.00;399.00;399.00;399.00;
443499;101843;-43.11;32.0;1.020;-0.522;-10.401;0.020;-0.065;-0.014;-3.956;77.783;63.799;2.8;-5.2;269.2;34.5;12;2025-05-13;14:53:24;51.935539;4.194816;-11943.413086;-6898.833984;4.6;346.82;27.88;6.81;27.0;399.00;399.00;399.00;399.00;
443599;101845;-43.23;32.0;0.982;-0.522;-10.367;0.025;-0.064;-0.010;-3.956;77.783;63.799;2.8;-5.2;269.2;34.5;12;2025-05-13;14:53:25;51.935539;4.194815;-11943.493164;-6898.796875;4.6;346.82;36.30;7.77;27.0;399.00;399.00;399.00;399.00;
443699;101846;-43.30;32.0;0.958;-0.517;-10.334;0.021;-0.062;-0.013;-3.956;77.783;63.799;2.8;-5.1;269.2;34.5;12;2025-05-13;14:53:25;51.935539;4.194815;-11943.493164;-6898.796875;4.5;346.82;36.30;7.77;27.0;399.00;399.00;399.00;399.00;
443799;101848;-43.48;32.0;0.962;-0.484;-10.319;0.026;-0.063;-0.017;-3.956;77.783;63.799;2.8;-5.1;269.1;34.5;12;2025-05-13;14:53:25;51.935539;4.194815;-11943.493164;-6898.796875;4.5;346.82;36.30;7.77;27.0;399.00;399.00;399.00;399.00;
443899;101847;-43.39;32.0;0.967;-0.532;-10.377;0.021;-0.061;-0.016;-3.956;77.783;63.799;2.8;-5.1;269.1;34.5;12;2025-05-13;14:53:25;51.935539;4.194815;-11943.493164;-6898.796875;4.5;346.82;33.14;7.42;27.0;399.00;399.00;399.00;399.00;
443999;101847;-43.42;32.0;0.958;-0.469;-10.396;0.022;-0.064;-0.012;-3.956;77.783;63.799;2.8;-5.1;269.1;34.5;12;2025-05-13;14:53:25;51.935539;4.194815;-11943.493164;-6898.796875;4.5;346.82;31.04;7.18;27.0;399.00;399.00;399.00;399.00;
444099;101844;-43.15;32.0;1.006;-0.551;-10.410;0.021;-0.064;-0.011;-3.956;77.783;63.799;2.8;-5.1;269.1;34.5;12;2025-05-13;14:53:25;51.935539;4.194815;-11943.493164;-6898.796875;4.5;346.82;31.04;7.18;27.0;399.00;399.00;399.00;399.00;
444199;101846;-43.29;32.0;0.982;-0.565;-10.415;0.027;-0.062;-0.012;-3.956;77.783;63.799;2.9;-5.1;269.1;34.5;12;2025-05-13;14:53:25;51.935539;4.194815;-11943.493164;-6898.796875;4.5;346.82;37.35;7.88;27.0;399.00;399.00;399.00;399.00;
444299;101847;-43.37;32.0;0.967;-0.469;-10.338;0.026;-0.066;-0.015;-3.956;77.783;63.799;2.8;-5.1;269.0;34.5;12;2025-05-13;14:53:25;51.935539;4.194815;-11943.493164;-6898.796875;4.5;346.82;33.14;7.42;27.0;399.00;399.00;399.00;399.00;
444399;101845;-43.24;32.0;1.039;-0.498;-10.372;0.021;-0.064;-0.016;-3.956;77.783;63.799;2.8;-5.1;269.0;34.5;12;2025-05-13;14:53:25;51.935539;4.194815;-11943.493164;-6898.796875;4.5;346.82;36.30;7.77;27.0;399.00;399.00;399.00;399.00;
444499;101849;-43.59;32.0;0.972;-0.512;-10.444;0.028;-0.066;-0.017;-3.956;77.783;63.799;2.8;-5.1;269.0;34.5;12;2025-05-13;14:53:25;51.935539;4.194815;-11943.493164;-6898.796875;4.5;346.82;36.30;7.77;27.0;399.00;399.00;399.00;399.00;
444599;101847;-43.38;32.0;0.924;-0.532;-10.334;0.025;-0.066;-0.012;-3.956;77.783;63.799;2.8;-5.0;269.0;34.6;12;2025-05-13;14:53:26;51.935539;4.194815;-11943.527344;-6898.759766;4.5;346.82;36.30;7.77;27.0;399.00;399.00;399.00;399.00;
444699;101845;-43.21;32.0;0.996;-0.474;-10.405;0.023;-0.060;-0.014;-4.855;77.962;66.053;2.8;-5.1;269.0;34.6;12;2025-05-13;14:53:26;51.935539;4.194815;-11943.527344;-6898.759766;4.4;346.82;36.30;7.77;27.0;399.00;399.00;399.00;399.00;
444799;101845;-43.23;32.0;0.962;-0.512;-10.329;0.026;-0.065;-0.015;-4.855;77.245;63.626;2.8;-5.1;269.0;34.5;12;2025-05-13;14:53:26;51.935539;4.194815;-11943.527344;-6898.759766;4.4;346.82;33.14;7.42;27.0;399.00;399.00;399.00;399.00;
444899;101846;-43.29;32.0;0.958;-0.536;-10.396;0.023;-0.066;-0.012;-4.855;77.245;63.626;2.9;-5.1;269.0;34.5;12;2025-05-13;14:53:26;51.935539;4.194815;-11943.527344;-6898.759766;4.4;346.82;28.93;6.93;27.0;399.00;399.00;399.00;399.00;
444999;101846;-43.31;32.0;1.006;-0.517;-10.372;0.026;-0.065;-0.016;-4.855;77.245;63.626;2.9;-5.1;269.0;34.6;12;2025-05-13;14:53:26;51.935539;4.194815;-11943.527344;-6898.759766;4.4;346.82;36.30;7.77;27.0;399.00;399.00;399.00;399.00;
445099;101846;-43.32;32.0;0.924;-0.560;-10.357;0.022;-0.064;-0.013;-4.855;77.245;63.626;2.9;-5.1;269.0;34.6;12;2025-05-13;14:53:26;51.935539;4.194815;-11943.527344;-6898.759766;4.4;346.82;33.14;7.42;27.0;399.00;399.00;399.00;399.00;
445199;101843;-43.08;32.0;0.943;-0.493;-10.357;0.026;-0.068;-0.018;-4.855;77.245;63.626;2.9;-5.1;269.0;34.6;12;2025-05-13;14:53:26;51.935539;4.194815;-11943.527344;-6898.759766;4.4;346.82;36.30;7.77;27.0;399.00;399.00;399.00;399.00;
445299;101845;-43.28;32.0;1.006;-0.541;-10.444;0.022;-0.065;-0.016;-4.855;77.245;63.626;2.9;-5.1;269.0;34.5;12;2025-05-13;14:53:26;51.935539;4.194815;-11943.527344;-6898.759766;4.4;346.82;36.30;7.77;27.0;399.00;399.00;399.00;399.00;
445399;101844;-43.14;32.0;0.991;-0.522;-10.367;0.027;-0.058;-0.013;-4.855;77.245;63.626;2.9;-5.1;269.0;34.5;12;2025-05-13;14:53:26;51.935539;4.194815;-11943.527344;-6898.759766;4.4;346.82;33.14;7.42;27.0;399.00;399.00;399.00;399.00;
445499;101847;-43.41;32.0;1.030;-0.503;-10.343;0.023;-0.063;-0.015;-4.855;77.245;63.626;2.9;-5.1;269.0;34.5;12;2025-05-13;14:53:26;51.935539;4.194815;-11943.527344;-6898.759766;4.4;346.82;36.30;7.77;27.0;399.00;399.00;399.00;399.00;
445599;101848;-43.46;32.0;1.010;-0.541;-10.391;0.023;-0.065;-0.010;-4.855;77.245;63.626;2.9;-5.2;269.0;34.5;12;2025-05-13;14:53:27;51.935539;4.194813;-11943.619141;-6898.852539;4.4;346.82;36.30;7.77;27.0;399.00;399.00;399.00;399.00;
445699;101845;-43.22;32.0;0.948;-0.469;-10.381;0.022;-0.065;-0.016;-4.855;77.245;63.626;2.9;-5.2;269.0;34.6;12;2025-05-13;14:53:27;51.935539;4.194813;-11943.619141;-6898.852539;4.4;346.82;37.35;7.88;27.0;399.00;399.00;399.00;399.00;
445799;101847;-43.38;32.0;0.986;-0.522;-10.324;0.023;-0.063;-0.013;-4.855;77.245;63.626;2.9;-5.2;269.0;34.5;12;2025-05-13;14:53:27;51.935539;4.194813;-11943.619141;-6898.852539;4.4;346.82;33.14;7.42;27.0;399.00;399.00;399.00;399.00;
445899;101848;-43.49;32.0;0.939;-0.532;-10.343;0.023;-0.060;-0.010;-4.855;77.245;63.626;2.9;-5.2;269.0;34.6;12;2025-05-13;14:53:27;51.935539;4.194813;-11943.619141;-6898.852539;4.4;346.82;37.35;7.88;27.0;399.00;399.00;399.00;399.00;
445999;101847;-43.41;32.0;0.953;-0.527;-10.405;0.023;-0.064;-0.015;-4.855;77.245;63.626;2.9;-5.2;269.0;34.5;12;2025-05-13;14:53:27;51.935539;4.194813;-11943.619141;-6898.852539;4.4;346.82;33.14;7.42;27.0;399.00;399.00;399.00;399.00;
446099;101844;-43.20;32.0;1.006;-0.527;-10.353;0.022;-0.065;-0.014;-4.855;77.245;63.626;2.9;-5.2;269.0;34.6;12;2025-05-13;14:53:27;51.935539;4.194813;-11943.619141;-6898.852539;4.4;346.82;28.93;6.93;27.0;399.00;399.00;399.00;399.00;
446199;101845;-43.23;32.0;0.982;-0.493;-10.396;0.025;-0.062;-0.015;-4.855;77.245;63.626;2.9;-5.2;269.1;34.6;12;2025-05-13;14:53:27;51.935539;4.194813;-11943.619141;-6898.852539;4.4;346.82;36.30;7.77;27.0;399.00;399.00;399.00;399.00;
446299;101845;-43.25;32.0;0.986;-0.517;-10.401;0.023;-0.065;-0.014;-4.855;77.245;63.626;2.9;-5.2;269.1;34.6;12;2025-05-13;14:53:27;51.935539;4.194813;-11943.619141;-6898.852539;4.4;346.82;36.30;7.77;27.0;399.00;399.00;399.00;399.00;
446399;101844;-43.15;32.0;0.972;-0.541;-10.429;0.025;-0.063;-0.013;-4.855;77.245;63.626;2.9;-5.2;269.1;34.6;12;2025-05-13;14:53:27;51.935539;4.194813;-11943.619141;-6898.852539;4.4;346.82;36.30;7.77;27.0;399.00;399.00;399.00;399.00;
446499;101847;-43.41;32.0;1.015;-0.503;-10.357;0.026;-0.064;-0.014;-4.675;77.783;64.492;2.9;-5.2;269.1;34.5;12;2025-05-13;14:53:27;51.935539;4.194813;-11943.619141;-6898.852539;4.4;346.82;33.14;7.42;27.0;399.00;399.00;399.00;399.00;
446599;101846;-43.37;32.0;1.030;-0.532;-10.396;0.023;-0.065;-0.016;-3.596;78.142;63.452;2.9;-5.2;269.0;34.5;12;2025-05-13;14:53:28;51.935539;4.194814;-11943.596680;-6898.778320;4.4;346.82;33.14;7.42;27.0;399.00;399.00;399.00;399.00;
446699;101849;-43.54;32.0;0.953;-0.469;-10.362;0.021;-0.065;-0.011;-3.596;78.142;63.452;2.9;-5.2;269.0;34.5;12;2025-05-13;14:53:28;51.935539;4.194814;-11943.596680;-6898.778320;4.3;346.82;36.30;7.77;27.0;399.00;399.00;399.00;399.00;
446799;101847;-43.40;32.0;0.982;-0.536;-10.353;0.026;-0.062;-0.014;-3.596;78.142;63.452;2.9;-5.1;269.0;34.5;12;2025-05-13;14:53:28;51.935539;4.194814;-11943.596680;-6898.778320;4.3;346.82;33.14;7.42;27.0;399.00;399.00;399.00;399.00;
446899;101844;-43.16;32.0;0.953;-0.551;-10.429;0.021;-0.064;-0.016;-3.596;78.142;63.452;2.9;-5.1;269.0;34.5;12;2025-05-13;14:53:28;51.935539;4.194814;-11943.596680;-6898.778320;4.3;346.82;36.30;7.77;27.0;399.00;399.00;399.00;399.00;
446999;101846;-43.32;32.0;0.982;-0.512;-10.391;0.025;-0.065;-0.014;-3.596;78.142;63.452;2.9;-5.1;268.9;34.5;12;2025-05-13;14:53:28;51.935539;4.194814;-11943.596680;-6898.778320;4.3;346.82;31.04;7.18;27.0;399.00;399.00;399.00;399.00;
447099;101846;-43.33;32.0;0.972;-0.546;-10.439;0.023;-0.063;-0.012;-3.596;78.142;63.452;2.9;-5.1;268.9;34.5;12;2025-05-13;14:53:28;51.935539;4.194814;-11943.596680;-6898.778320;4.3;346.82;31.04;7.18;27.0;399.00;399.00;399.00;399.00;
447199;101847;-43.45;32.0;0.977;-0.555;-10.429;0.026;-0.066;-0.012;-3.596;78.142;63.452;2.9;-5.1;268.9;34.5;12;2025-05-13;14:53:28;51.935539;4.194814;-11943.596680;-6898.778320;4.3;346.82;33.14;7.42;27.0;399.00;399.00;399.00;399.00;
447299;101846;-43.32;32.0;0.967;-0.508;-10.410;0.025;-0.066;-0.011;-3.596;78.142;63.452;2.9;-5.1;268.9;34.6;12;2025-05-13;14:53:28;51.935539;4.194814;-11943.596680;-6898.778320;4.3;346.82;31.04;7.18;27.0;399.00;399.00;399.00;399.00;
447399;101843;-43.10;32.0;0.962;-0.536;-10.367;0.025;-0.063;-0.013;-3.596;78.142;63.452;2.9;-5.1;268.9;34.5;12;2025-05-13;14:53:28;51.935539;4.194814;-11943.596680;-6898.778320;4.3;346.82;33.14;7.42;27.0;399.00;399.00;399.00;399.00;
447499;101846;-43.37;32.0;0.972;-0.503;-10.386;0.023;-0.066;-0.016;-3.596;78.142;63.452;2.9;-5.0;268.8;34.5;12;2025-05-13;14:53:28;51.935539;4.194814;-11943.596680;-6898.778320;4.3;346.82;36.30;7.77;27.0;399.00;399.00;399.00;399.00;
447599;101845;-43.24;32.0;0.991;-0.450;-10.324;0.026;-0.068;-0.014;-3.596;78.142;63.452;2.9;-5.0;268.8;34.5;12;2025-05-13;14:53:29;51.935539;4.194815;-11943.516602;-6898.759766;4.3;346.82;31.04;7.18;27.0;399.00;399.00;399.00;399.00;
447699;101847;-43.38;32.0;0.996;-0.575;-10.410;0.027;-0.062;-0.015;-3.596;78.142;63.452;2.9;-5.0;268.8;34.6;12;2025-05-13;14:53:29;51.935539;4.194815;-11943.516602;-6898.759766;4.5;346.82;28.93;6.93;27.0;399.00;399.00;399.00;399.00;
447799;101846;-43.37;32.0;0.972;-0.493;-10.415;0.026;-0.065;-0.016;-3.596;78.142;63.452;2.9;-5.0;268.8;34.5;12;2025-05-13;14:53:29;51.935539;4.194815;-11943.516602;-6898.759766;4.5;346.82;33.14;7.42;27.0;399.00;399.00;399.00;399.00;
447899;101843;-43.08;32.0;0.982;-0.493;-10.338;0.019;-0.065;-0.009;-3.596;78.142;63.452;2.9;-5.0;268.8;34.6;12;2025-05-13;14:53:29;51.935539;4.194815;-11943.516602;-6898.759766;4.5;346.82;36.30;7.77;27.0;399.00;399.00;399.00;399.00;
447999;101846;-43.30;32.0;1.044;-0.541;-10.381;0.025;-0.058;-0.017;-3.596;78.142;63.452;2.9;-5.0;268.8;34.5;12;2025-05-13;14:53:29;51.935539;4.194815;-11943.516602;-6898.759766;4.5;346.82;33.14;7.42;27.0;399.00;399.00;399.00;399.00;
448099;101845;-43.25;32.0;1.015;-0.503;-10.434;0.025;-0.065;-0.015;-3.596;78.142;63.452;2.9;-5.1;268.8;34.5;12;2025-05-13;14:53:29;51.935539;4.194815;-11943.516602;-6898.759766;4.5;346.82;33.14;7.42;27.0;399.00;399.00;399.00;399.00;
448199;101845;-43.27;32.0;0.958;-0.527;-10.367;0.025;-0.066;-0.013;-3.596;78.142;63.452;2.9;-5.0;268.7;34.5;12;2025-05-13;14:53:29;51.935539;4.194815;-11943.516602;-6898.759766;4.5;346.82;33.14;7.42;27.0;399.00;399.00;399.00;399.00;
448299;101846;-43.33;32.0;1.015;-0.536;-10.381;0.023;-0.066;-0.013;-3.596;78.142;63.452;2.9;-5.1;268.7;34.5;12;2025-05-13;14:53:29;51.935539;4.194815;-11943.516602;-6898.759766;4.5;346.82;31.04;7.18;27.0;399.00;399.00;399.00;399.00;
448399;101847;-43.44;32.0;0.962;-0.508;-10.367;0.022;-0.062;-0.014;-3.596;78.142;63.452;2.9;-5.0;268.7;34.5;12;2025-05-13;14:53:29;51.935539;4.194815;-11943.516602;-6898.759766;4.5;346.82;39.45;8.10;27.0;399.00;399.00;399.00;399.00;
448499;101846;-43.34;32.0;0.986;-0.522;-10.463;0.025;-0.069;-0.014;-3.596;78.142;63.452;2.9;-5.0;268.7;34.6;12;2025-05-13;14:53:29;51.935539;4.194815;-11943.516602;-6898.759766;4.5;346.82;33.14;7.42;27.0;399.00;399.00;399.00;399.00;
448599;101847;-43.43;32.0;1.030;-0.474;-10.386;0.026;-0.061;-0.014;-4.855;77.962;63.626;2.9;-5.1;268.7;34.5;12;2025-05-13;14:53:30;51.935539;4.194815;-11943.482422;-6898.796875;4.5;346.82;36.30;7.77;27.0;399.00;399.00;399.00;399.00;
448699;101845;-43.27;32.0;0.962;-0.450;-10.300;0.027;-0.062;-0.014;-4.315;60.398;49.063;2.9;-5.1;268.8;34.5;12;2025-05-13;14:53:30;51.935539;4.194815;-11943.482422;-6898.796875;4.4;346.82;33.14;7.42;27.0;399.00;399.00;399.00;399.00;
448799;101847;-43.38;32.0;1.006;-0.532;-10.367;0.023;-0.062;-0.010;-4.315;60.398;49.063;2.9;-5.1;268.8;34.5;12;2025-05-13;14:53:30;51.935539;4.194815;-11943.482422;-6898.796875;4.4;346.82;33.14;7.42;27.0;399.00;399.00;399.00;399.00;
448899;101847;-43.39;32.0;0.910;-0.503;-10.329;0.023;-0.065;-0.011;-4.315;60.398;49.063;2.9;-5.2;268.8;34.5;12;2025-05-13;14:53:30;51.935539;4.194815;-11943.482422;-6898.796875;4.4;346.82;31.04;7.18;27.0;399.00;399.00;399.00;399.00;
448999;101846;-43.31;32.0;0.972;-0.436;-10.353;0.027;-0.066;-0.015;-4.315;60.398;49.063;2.8;-5.2;268.8;34.5;12;2025-05-13;14:53:30;51.935539;4.194815;-11943.482422;-6898.796875;4.4;346.82;33.14;7.42;27.0;399.00;399.00;399.00;399.00;
449099;101844;-43.19;32.0;0.996;-0.517;-10.444;0.022;-0.063;-0.015;-4.315;60.398;49.063;2.9;-5.2;268.9;34.5;12;2025-05-13;14:53:30;51.935539;4.194815;-11943.482422;-6898.796875;4.4;346.82;37.35;7.88;27.0;399.00;399.00;399.00;399.00;
449199;101844;-43.17;32.0;0.982;-0.565;-10.391;0.023;-0.065;-0.012;-4.315;60.398;49.063;2.9;-5.2;268.9;34.5;12;2025-05-13;14:53:30;51.935539;4.194815;-11943.482422;-6898.796875;4.4;346.82;28.93;6.93;27.0;399.00;399.00;399.00;399.00;
449299;101845;-43.26;32.0;1.010;-0.479;-10.362;0.020;-0.064;-0.014;-4.315;60.398;49.063;2.9;-5.3;268.9;34.5;12;2025-05-13;14:53:30;51.935539;4.194815;-11943.482422;-6898.796875;4.4;346.82;31.04;7.18;27.0;399.00;399.00;399.00;399.00;
449399;101846;-43.33;32.0;1.034;-0.546;-10.420;0.025;-0.062;-0.015;-4.315;60.398;49.063;2.9;-5.3;268.9;34.5;12;2025-05-13;14:53:30;51.935539;4.194815;-11943.482422;-6898.796875;4.4;346.82;36.30;7.77;27.0;399.00;399.00;399.00;399.00;
449499;101844;-43.16;32.0;0.905;-0.541;-10.410;0.027;-0.064;-0.013;-4.315;60.398;49.063;2.9;-5.3;268.9;34.5;12;2025-05-13;14:53:30;51.935539;4.194815;-11943.482422;-6898.796875;4.4;346.82;31.04;7.18;27.0;399.00;399.00;399.00;399.00;
449599;101845;-43.25;32.0;0.991;-0.503;-10.377;0.023;-0.063;-0.011;-4.315;60.398;49.063;2.9;-5.3;269.0;34.5;12;2025-05-13;14:53:31;51.935539;4.194815;-11943.527344;-6898.759766;4.4;346.82;33.14;7.42;27.0;399.00;399.00;399.00;399.00;
449699;101846;-43.36;32.0;0.977;-0.484;-10.357;0.021;-0.062;-0.018;-4.315;60.398;49.063;2.9;-5.3;269.0;34.6;12;2025-05-13;14:53:31;51.935539;4.194815;-11943.527344;-6898.759766;4.3;346.82;31.04;7.18;27.0;399.00;399.00;399.00;399.00;
449799;101844;-43.12;32.0;0.991;-0.555;-10.405;0.020;-0.063;-0.016;-4.315;60.398;49.063;2.9;-5.3;269.0;34.6;12;2025-05-13;14:53:31;51.935539;4.194815;-11943.527344;-6898.759766;4.3;346.82;33.14;7.42;27.0;399.00;399.00;399.00;399.00;
449899;101846;-43.32;32.0;0.991;-0.560;-10.334;0.025;-0.064;-0.015;-4.315;60.398;49.063;2.9;-5.3;269.0;34.5;12;2025-05-13;14:53:31;51.935539;4.194815;-11943.527344;-6898.759766;4.3;346.82;36.30;7.77;27.0;399.00;399.00;399.00;399.00;
449999;101846;-43.33;32.0;0.991;-0.517;-10.367;0.021;-0.062;-0.014;-4.315;60.398;49.063;2.9;-5.3;269.0;34.5;12;2025-05-13;14:53:31;51.935539;4.194815;-11943.527344;-6898.759766;4.3;346.82;33.14;7.42;27.0;399.00;399.00;399.00;399.00;
450099;101845;-43.25;32.0;1.058;-0.493;-10.391;0.021;-0.065;-0.015;-4.315;60.398;49.063;2.9;-5.4;269.0;34.6;12;2025-05-13;14:53:31;51.935539;4.194815;-11943.527344;-6898.759766;4.3;346.82;36.30;7.77;27.0;399.00;399.00;399.00;399.00;
450199;101844;-43.19;32.0;0.972;-0.536;-10.420;0.022;-0.068;-0.011;-4.315;60.398;49.063;2.9;-5.4;269.0;34.6;12;2025-05-13;14:53:31;51.935539;4.194815;-11943.527344;-6898.759766;4.3;346.82;31.04;7.18;27.0;399.00;399.00;399.00;399.00;
450299;101846;-43.33;32.0;0.977;-0.517;-10.377;0.022;-0.065;-0.014;-4.315;60.398;49.063;2.9;-5.4;269.1;34.6;12;2025-05-13;14:53:31;51.935539;4.194815;-11943.527344;-6898.759766;4.3;346.82;36.30;7.77;27.0;399.00;399.00;399.00;399.00;
450399;101847;-43.39;32.0;0.953;-0.479;-10.348;0.021;-0.063;-0.013;-1.798;77.066;62.759;2.9;-5.3;269.0;34.6;12;2025-05-13;14:53:31;51.935539;4.194815;-11943.527344;-6898.759766;4.3;346.82;31.04;7.18;27.0;399.00;399.00;399.00;399.00;
450499;101844;-43.15;32.0;0.982;-0.541;-10.396;0.027;-0.064;-0.011;-3.416;78.679;65.013;2.9;-5.3;269.0;34.6;12;2025-05-13;14:53:31;51.935539;4.194815;-11943.527344;-6898.759766;4.3;346.82;36.30;7.77;27.0;399.00;399.00;399.00;399.00;
450599;101847;-43.43;32.0;0.977;-0.498;-10.448;0.027;-0.065;-0.013;-3.416;78.679;65.013;2.9;-5.2;268.9;34.6;12;2025-05-13;14:53:32;51.935539;4.194815;-11943.527344;-6898.741211;4.3;346.82;33.14;7.42;27.0;399.00;399.00;399.00;399.00;
450699;101846;-43.30;32.0;1.001;-0.488;-10.362;0.023;-0.067;-0.015;-3.416;78.679;65.013;2.9;-5.2;268.9;34.6;12;2025-05-13;14:53:32;51.935539;4.194815;-11943.527344;-6898.741211;4.4;346.82;31.04;7.18;27.0;399.00;399.00;399.00;399.00;
450799;101846;-43.34;32.0;0.986;-0.512;-10.396;0.026;-0.064;-0.012;-3.416;78.679;65.013;2.9;-5.2;268.9;34.6;12;2025-05-13;14:53:32;51.935539;4.194815;-11943.527344;-6898.741211;4.4;346.82;36.30;7.77;27.0;399.00;399.00;399.00;399.00;
450899;101845;-43.25;32.0;0.982;-0.484;-10.391;0.021;-0.061;-0.013;-3.416;78.679;65.013;2.9;-5.2;268.8;34.6;12;2025-05-13;14:53:32;51.935539;4.194815;-11943.527344;-6898.741211;4.4;346.82;39.45;8.10;27.0;399.00;399.00;399.00;399.00;
450999;101848;-43.45;32.0;0.953;-0.503;-10.468;0.025;-0.064;-0.012;-3.416;78.679;65.013;2.9;-5.1;268.8;34.5;12;2025-05-13;14:53:32;51.935539;4.194815;-11943.527344;-6898.741211;4.4;346.82;36.30;7.77;27.0;399.00;399.00;399.00;399.00;
451099;101844;-43.16;32.0;1.015;-0.508;-10.324;0.025;-0.065;-0.016;-3.416;78.679;65.013;2.9;-5.1;268.8;34.5;12;2025-05-13;14:53:32;51.935539;4.194815;-11943.527344;-6898.741211;4.4;346.82;36.30;7.77;27.0;399.00;399.00;399.00;399.00;
451199;101846;-43.35;32.0;1.030;-0.503;-10.401;0.022;-0.063;-0.016;-3.416;78.679;65.013;2.9;-5.1;268.8;34.6;12;2025-05-13;14:53:32;51.935539;4.194815;-11943.527344;-6898.741211;4.4;346.82;36.30;7.77;27.0;399.00;399.00;399.00;399.00;
451299;101844;-43.20;32.0;1.015;-0.546;-10.391;0.025;-0.066;-0.012;-3.416;78.679;65.013;2.9;-5.1;268.8;34.5;12;2025-05-13;14:53:32;51.935539;4.194815;-11943.527344;-6898.741211;4.4;346.82;36.30;7.77;27.0;399.00;399.00;399.00;399.00;
451399;101845;-43.28;32.0;0.986;-0.508;-10.401;0.022;-0.063;-0.017;-3.416;78.679;65.013;2.9;-5.1;268.7;34.5;12;2025-05-13;14:53:32;51.935539;4.194815;-11943.527344;-6898.741211;4.4;346.82;39.45;8.10;27.0;399.00;399.00;399.00;399.00;
451499;101845;-43.21;32.0;0.972;-0.512;-10.377;0.025;-0.064;-0.013;-3.416;78.679;65.013;2.9;-5.1;268.7;34.6;12;2025-05-13;14:53:32;51.935539;4.194815;-11943.527344;-6898.741211;4.4;346.82;31.04;7.18;27.0;399.00;399.00;399.00;399.00;
451599;101847;-43.38;32.0;0.996;-0.417;-10.377;0.026;-0.064;-0.011;-3.416;78.679;65.013;2.8;-5.1;268.7;34.5;12;2025-05-13;14:53:33;51.935539;4.194815;-11943.504883;-6898.704102;4.4;346.82;28.93;6.93;27.0;399.00;399.00;399.00;399.00;
451699;101846;-43.37;32.0;1.006;-0.441;-10.372;0.022;-0.064;-0.015;-3.416;78.679;65.013;2.8;-5.1;268.7;34.6;12;2025-05-13;14:53:33;51.935539;4.194815;-11943.504883;-6898.704102;4.4;346.82;39.45;8.10;27.0;399.00;399.00;399.00;399.00;
451799;101845;-43.28;32.0;1.025;-0.508;-10.401;0.020;-0.065;-0.013;-3.416;78.679;65.013;2.8;-5.1;268.7;34.5;12;2025-05-13;14:53:33;51.935539;4.194815;-11943.504883;-6898.704102;4.4;346.82;36.30;7.77;27.0;399.00;399.00;399.00;399.00;
451899;101844;-43.14;32.0;1.001;-0.455;-10.386;0.026;-0.069;-0.012;-3.416;78.679;65.013;2.8;-5.1;268.6;34.6;12;2025-05-13;14:53:33;51.935539;4.194815;-11943.504883;-6898.704102;4.4;346.82;33.14;7.42;27.0;399.00;399.00;399.00;399.00;
451999;101846;-43.30;32.0;0.953;-0.474;-10.310;0.025;-0.062;-0.016;-3.416;78.679;65.013;2.8;-5.1;268.6;34.5;12;2025-05-13;14:53:33;51.935539;4.194815;-11943.504883;-6898.704102;4.4;346.82;33.14;7.42;27.0;399.00;399.00;399.00;399.00;
452099;101846;-43.29;32.0;0.986;-0.536;-10.477;0.021;-0.066;-0.015;-3.416;78.679;65.013;2.8;-5.1;268.6;34.5;12;2025-05-13;14:53:33;51.935539;4.194815;-11943.504883;-6898.704102;4.4;346.82;28.93;6.93;27.0;399.00;399.00;399.00;399.00;
452199;101843;-43.05;32.0;0.943;-0.508;-10.391;0.025;-0.066;-0.015;-3.416;78.679;65.013;2.8;-5.0;268.6;34.6;12;2025-05-13;14:53:33;51.935539;4.194815;-11943.504883;-6898.704102;4.4;346.82;36.30;7.77;27.0;399.00;399.00;399.00;399.00;
452299;101842;-42.99;32.0;0.982;-0.522;-10.386;0.026;-0.064;-0.011;-3.416;78.679;65.013;2.8;-5.0;268.6;34.6;12;2025-05-13;14:53:33;51.935539;4.194815;-11943.504883;-6898.704102;4.4;346.82;37.35;7.88;27.0;399.00;399.00;399.00;399.00;
452399;101845;-43.21;32.0;0.972;-0.546;-10.468;0.027;-0.067;-0.009;-3.416;78.679;65.013;2.8;-5.0;268.6;34.6;12;2025-05-13;14:53:33;51.935539;4.194815;-11943.504883;-6898.704102;4.4;346.82;33.14;7.42;27.0;399.00;399.00;399.00;399.00;
452499;101843;-43.04;32.0;1.006;-0.479;-10.391;0.021;-0.068;-0.011;-3.416;78.679;65.013;2.8;-5.0;268.6;34.5;12;2025-05-13;14:53:33;51.935539;4.194815;-11943.504883;-6898.704102;4.4;346.82;36.30;7.77;27.0;399.00;399.00;399.00;399.00;
452599;101841;-42.91;32.0;1.001;-0.450;-10.362;0.021;-0.063;-0.012;-3.416;78.679;65.013;2.8;-5.0;268.5;34.6;12;2025-05-13;14:53:34;51.935539;4.194814;-11943.573242;-6898.666992;4.4;346.82;37.35;7.88;27.0;399.00;399.00;399.00;399.00;
452699;101842;-42.96;32.0;0.982;-0.555;-10.401;0.022;-0.064;-0.019;-3.416;78.679;65.013;2.8;-5.0;268.5;34.6;12;2025-05-13;14:53:34;51.935539;4.194814;-11943.573242;-6898.666992;4.5;346.82;36.30;7.77;27.0;399.00;399.00;399.00;399.00;
452799;101844;-43.15;32.0;0.991;-0.493;-10.372;0.025;-0.064;-0.013;-3.416;78.679;65.013;2.8;-5.0;268.5;34.6;12;2025-05-13;14:53:34;51.935539;4.194814;-11943.573242;-6898.666992;4.5;346.82;37.35;7.88;27.0;399.00;399.00;399.00;399.00;
452899;101845;-43.23;32.0;1.034;-0.508;-10.420;0.026;-0.067;-0.012;-3.416;78.679;65.013;2.8;-5.1;268.5;34.6;12;2025-05-13;14:53:34;51.935539;4.194814;-11943.573242;-6898.666992;4.5;346.82;36.30;7.77;27.0;399.00;399.00;399.00;399.00;
452999;101844;-43.14;32.0;0.967;-0.555;-10.401;0.022;-0.063;-0.012;-3.416;78.679;65.013;2.8;-5.0;268.5;34.6;12;2025-05-13;14:53:34;51.935539;4.194814;-11943.573242;-6898.666992;4.5;346.82;33.14;7.42;27.0;399.00;399.00;399.00;399.00;
453099;101844;-43.18;32.0;1.049;-0.522;-10.377;0.022;-0.062;-0.012;-3.416;78.679;65.013;2.8;-5.1;268.5;34.6;12;2025-05-13;14:53:34;51.935539;4.194814;-11943.573242;-6898.666992;4.5;346.82;36.30;7.77;27.0;399.00;399.00;399.00;399.00;
453199;101844;-43.15;32.0;0.939;-0.498;-10.386;0.022;-0.063;-0.013;-3.416;78.679;65.013;2.8;-5.0;268.5;34.5;12;2025-05-13;14:53:34;51.935539;4.194814;-11943.573242;-6898.666992;4.5;346.82;37.35;7.88;27.0;399.00;399.00;399.00;399.00;
453299;101845;-43.28;32.0;1.058;-0.464;-10.305;0.025;-0.063;-0.014;-3.416;78.679;65.013;2.8;-5.1;268.5;34.6;12;2025-05-13;14:53:34;51.935539;4.194814;-11943.573242;-6898.666992;4.5;346.82;36.30;7.77;27.0;399.00;399.00;399.00;399.00;
453399;101842;-43.00;32.0;1.006;-0.484;-10.377;0.022;-0.061;-0.015;-3.416;78.679;65.013;2.8;-5.1;268.4;34.6;12;2025-05-13;14:53:34;51.935539;4.194814;-11943.573242;-6898.666992;4.5;346.82;39.45;8.10;27.0;399.00;399.00;399.00;399.00;
453499;101844;-43.18;32.0;0.958;-0.484;-10.372;0.020;-0.064;-0.015;-3.416;78.679;65.013;2.8;-5.1;268.4;34.6;12;2025-05-13;14:53:34;51.935539;4.194814;-11943.573242;-6898.666992;4.5;346.82;36.30;7.77;27.0;399.00;399.00;399.00;399.00;
453599;101847;-43.38;32.0;0.991;-0.493;-10.425;0.022;-0.062;-0.013;-3.416;78.679;65.013;2.8;-5.1;268.4;34.6;12;2025-05-13;14:53:35;51.935543;4.194812;-11943.699219;-6898.611328;4.5;346.82;31.04;7.18;27.0;399.00;399.00;399.00;399.00;
453699;101846;-43.33;32.0;0.986;-0.493;-10.386;0.025;-0.063;-0.012;-3.416;78.679;65.013;2.8;-5.1;268.4;34.6;12;2025-05-13;14:53:35;51.935543;4.194812;-11943.699219;-6898.611328;4.5;346.82;36.30;7.77;27.0;399.00;399.00;399.00;399.00;
453799;101846;-43.36;32.0;0.953;-0.488;-10.415;0.025;-0.066;-0.013;-3.416;78.679;65.013;2.8;-5.1;268.4;34.6;12;2025-05-13;14:53:35;51.935543;4.194812;-11943.699219;-6898.611328;4.5;346.82;36.30;7.77;27.0;399.00;399.00;399.00;399.00;
453899;101845;-43.26;32.0;0.977;-0.546;-10.425;0.023;-0.063;-0.013;-3.416;78.679;65.013;2.8;-5.1;268.4;34.6;12;2025-05-13;14:53:35;51.935543;4.194812;-11943.699219;-6898.611328;4.5;346.82;36.30;7.77;27.0;399.00;399.00;399.00;399.00;
453999;101846;-43.34;32.0;0.986;-0.503;-10.472;0.023;-0.064;-0.017;-3.416;78.679;65.013;2.8;-5.1;268.4;34.6;12;2025-05-13;14:53:35;51.935543;4.194812;-11943.699219;-6898.611328;4.5;346.82;33.14;7.42;27.0;399.00;399.00;399.00;399.00;
454099;101845;-43.29;32.0;1.010;-0.527;-10.372;0.025;-0.066;-0.015;-3.416;78.679;65.013;2.8;-5.1;268.4;34.6;12;2025-05-13;14:53:35;51.935543;4.194812;-11943.699219;-6898.611328;4.5;346.82;36.30;7.77;27.0;399.00;399.00;399.00;399.00;
454199;101846;-43.31;32.0;0.962;-0.498;-10.338;0.027;-0.063;-0.012;-3.416;78.679;65.013;2.8;-5.1;268.4;34.6;12;2025-05-13;14:53:35;51.935543;4.194812;-11943.699219;-6898.611328;4.5;346.82;33.14;7.42;27.0;399.00;399.00;399.00;399.00;
454299;101846;-43.34;32.0;1.006;-0.555;-10.468;0.023;-0.064;-0.011;-3.956;79.934;63.106;2.8;-5.1;268.4;34.6;12;2025-05-13;14:53:35;51.935543;4.194812;-11943.699219;-6898.611328;4.5;346.82;36.30;7.77;27.0;399.00;399.00;399.00;399.00;
454399;101845;-43.21;32.0;1.010;-0.517;-10.372;0.023;-0.068;-0.016;-5.214;76.887;63.626;2.8;-5.1;268.4;34.5;12;2025-05-13;14:53:35;51.935543;4.194812;-11943.699219;-6898.611328;4.5;346.82;33.14;7.42;27.0;399.00;399.00;399.00;399.00;
454499;101844;-43.15;32.0;1.006;-0.551;-10.396;0.025;-0.064;-0.013;-5.214;76.887;63.626;2.8;-5.2;268.4;34.5;12;2025-05-13;14:53:35;51.935543;4.194812;-11943.699219;-6898.611328;4.5;346.82;33.14;7.42;27.0;399.00;399.00;399.00;399.00;
454599;101846;-43.35;32.0;1.010;-0.512;-10.468;0.023;-0.064;-0.018;-5.214;76.887;63.626;2.8;-5.2;268.5;34.6;12;2025-05-13;14:53:36;51.935543;4.194812;-11943.721680;-6898.611328;4.5;346.82;36.30;7.77;27.0;399.00;399.00;399.00;399.00;
454699;101844;-43.13;32.0;0.996;-0.431;-10.381;0.025;-0.063;-0.012;-5.214;76.887;63.626;2.8;-5.2;268.5;34.6;12;2025-05-13;14:53:36;51.935543;4.194812;-11943.721680;-6898.611328;4.6;346.82;36.30;7.77;27.0;399.00;399.00;399.00;399.00;
454799;101842;-43.03;32.0;1.006;-0.498;-10.381;0.021;-0.067;-0.014;-5.214;76.887;63.626;2.8;-5.3;268.5;34.6;12;2025-05-13;14:53:36;51.935543;4.194812;-11943.721680;-6898.611328;4.6;346.82;33.14;7.42;27.0;399.00;399.00;399.00;399.00;
454899;101844;-43.14;32.0;0.919;-0.503;-10.353;0.023;-0.062;-0.012;-5.214;76.887;63.626;2.8;-5.3;268.5;34.6;12;2025-05-13;14:53:36;51.935543;4.194812;-11943.721680;-6898.611328;4.6;346.82;33.14;7.42;27.0;399.00;399.00;399.00;399.00;
454999;101845;-43.27;32.0;0.977;-0.503;-10.338;0.022;-0.060;-0.013;-5.214;76.887;63.626;2.8;-5.3;268.5;34.5;12;2025-05-13;14:53:36;51.935543;4.194812;-11943.721680;-6898.611328;4.6;346.82;37.35;7.88;27.0;399.00;399.00;399.00;399.00;
455099;101842;-42.98;32.0;0.996;-0.527;-10.425;0.025;-0.065;-0.014;-5.214;76.887;63.626;2.8;-5.3;268.6;34.6;12;2025-05-13;14:53:36;51.935543;4.194812;-11943.721680;-6898.611328;4.6;346.82;40.51;8.20;27.0;399.00;399.00;399.00;399.00;
455199;101841;-42.95;32.0;0.953;-0.536;-10.429;0.023;-0.064;-0.013;-5.214;76.887;63.626;2.8;-5.3;268.6;34.6;12;2025-05-13;14:53:36;51.935543;4.194812;-11943.721680;-6898.611328;4.6;346.82;33.14;7.42;27.0;399.00;399.00;399.00;399.00;
455299;101844;-43.20;32.0;0.986;-0.517;-10.353;0.025;-0.067;-0.012;-5.214;76.887;63.626;2.8;-5.3;268.6;34.6;12;2025-05-13;14:53:36;51.935543;4.194812;-11943.721680;-6898.611328;4.6;346.82;31.04;7.18;27.0;399.00;399.00;399.00;399.00;
455399;101845;-43.28;32.0;0.977;-0.503;-10.405;0.023;-0.065;-0.015;-5.214;76.887;63.626;2.8;-5.3;268.6;34.6;12;2025-05-13;14:53:36;51.935543;4.194812;-11943.721680;-6898.611328;4.6;346.82;37.35;7.88;27.0;399.00;399.00;399.00;399.00;
455499;101844;-43.20;32.0;0.962;-0.503;-10.401;0.023;-0.067;-0.012;-5.214;76.887;63.626;2.8;-5.3;268.6;34.6;12;2025-05-13;14:53:36;51.935543;4.194812;-11943.721680;-6898.611328;4.6;346.82;36.30;7.77;27.0;399.00;399.00;399.00;399.00;
455599;101842;-43.01;32.0;0.953;-0.536;-10.377;0.022;-0.063;-0.011;-5.214;76.887;63.626;2.8;-5.3;268.7;34.6;12;2025-05-13;14:53:37;51.935543;4.194812;-11943.721680;-6898.611328;4.6;346.82;37.35;7.88;27.0;399.00;399.00;399.00;399.00;
455699;101843;-43.09;32.0;0.953;-0.469;-10.357;0.025;-0.067;-0.013;-5.214;76.887;63.626;2.8;-5.3;268.7;34.6;12;2025-05-13;14:53:37;51.935543;4.194812;-11943.721680;-6898.611328;4.7;346.82;39.45;8.10;27.0;399.00;399.00;399.00;399.00;
455799;101842;-43.03;32.0;0.977;-0.560;-10.468;0.023;-0.063;-0.013;-5.214;76.887;63.626;2.9;-5.3;268.7;34.6;12;2025-05-13;14:53:37;51.935543;4.194812;-11943.721680;-6898.611328;4.7;346.82;33.14;7.42;27.0;399.00;399.00;399.00;399.00;
455899;101843;-43.11;32.0;1.010;-0.498;-10.386;0.023;-0.061;-0.015;-5.214;76.887;63.626;2.8;-5.4;268.7;34.6;12;2025-05-13;14:53:37;51.935543;4.194812;-11943.721680;-6898.611328;4.7;346.82;33.14;7.42;27.0;399.00;399.00;399.00;399.00;
455999;101846;-43.35;32.0;0.977;-0.498;-10.381;0.021;-0.064;-0.016;-5.214;76.887;63.626;2.8;-5.4;268.7;34.6;12;2025-05-13;14:53:37;51.935543;4.194812;-11943.721680;-6898.611328;4.7;346.82;37.35;7.88;27.0;399.00;399.00;399.00;399.00;
456099;101845;-43.25;32.0;0.967;-0.484;-10.324;0.019;-0.068;-0.016;-5.214;76.887;63.626;2.8;-5.4;268.7;34.6;12;2025-05-13;14:53:37;51.935543;4.194812;-11943.721680;-6898.611328;4.7;346.82;36.30;7.77;27.0;399.00;399.00;399.00;399.00;
456199;101847;-43.40;32.0;0.982;-0.503;-10.415;0.023;-0.065;-0.014;-5.214;76.887;63.626;2.8;-5.4;268.7;34.6;12;2025-05-13;14:53:37;51.935543;4.194812;-11943.721680;-6898.611328;4.7;346.82;36.30;7.77;27.0;399.00;399.00;399.00;399.00;
456299;101845;-43.23;32.0;0.958;-0.479;-10.353;0.025;-0.067;-0.015;-4.136;76.887;64.319;2.8;-5.3;268.7;34.6;12;2025-05-13;14:53:37;51.935543;4.194812;-11943.721680;-6898.611328;4.7;346.82;37.35;7.88;27.0;399.00;399.00;399.00;399.00;
456399;101844;-43.14;32.0;1.015;-0.503;-10.372;0.025;-0.060;-0.014;-4.136;76.887;64.319;2.8;-5.3;268.7;34.6;12;2025-05-13;14:53:37;51.935543;4.194812;-11943.721680;-6898.611328;4.7;346.82;36.30;7.77;27.0;399.00;399.00;399.00;399.00;
456499;101845;-43.21;32.0;1.001;-0.508;-10.348;0.022;-0.064;-0.014;-4.136;76.887;64.319;2.8;-5.3;268.7;34.6;12;2025-05-13;14:53:37;51.935543;4.194812;-11943.721680;-6898.611328;4.7;346.82;31.04;7.18;27.0;399.00;399.00;399.00;399.00;
456599;101844;-43.15;32.0;0.953;-0.450;-10.396;0.023;-0.063;-0.013;-4.136;76.887;64.319;2.8;-5.3;268.7;34.6;12;2025-05-13;14:53:38;51.935539;4.194812;-11943.699219;-6898.629883;4.7;346.82;33.14;7.42;27.0;399.00;399.00;399.00;399.00;
456699;101843;-43.11;32.0;0.962;-0.493;-10.381;0.021;-0.066;-0.012;-4.136;76.887;64.319;2.8;-5.3;268.7;34.6;12;2025-05-13;14:53:38;51.935539;4.194812;-11943.699219;-6898.629883;4.7;346.82;36.30;7.77;27.0;399.00;399.00;399.00;399.00;
456799;101843;-43.11;32.0;0.982;-0.517;-10.386;0.023;-0.061;-0.012;-4.136;76.887;64.319;2.8;-5.3;268.7;34.6;12;2025-05-13;14:53:38;51.935539;4.194812;-11943.699219;-6898.629883;4.7;346.82;36.30;7.77;27.0;399.00;399.00;399.00;399.00;
456899;101844;-43.17;32.0;0.948;-0.522;-10.439;0.027;-0.062;-0.015;-4.136;76.887;64.319;2.8;-5.3;268.7;34.6;12;2025-05-13;14:53:38;51.935539;4.194812;-11943.699219;-6898.629883;4.7;346.82;36.30;7.77;27.0;399.00;399.00;399.00;399.00;
456999;101845;-43.27;32.0;0.977;-0.532;-10.425;0.019;-0.066;-0.014;-4.136;76.887;64.319;2.8;-5.3;268.7;34.6;12;2025-05-13;14:53:38;51.935539;4.194812;-11943.699219;-6898.629883;4.7;346.82;36.30;7.77;27.0;399.00;399.00;399.00;399.00;
457099;101844;-43.17;32.0;1.010;-0.498;-10.334;0.028;-0.060;-0.012;-4.136;76.887;64.319;2.8;-5.3;268.7;34.6;12;2025-05-13;14:53:38;51.935539;4.194812;-11943.699219;-6898.629883;4.7;346.82;36.30;7.77;27.0;399.00;399.00;399.00;399.00;
457199;101844;-43.17;32.0;1.034;-0.474;-10.405;0.021;-0.061;-0.013;-4.136;76.887;64.319;2.8;-5.3;268.7;34.6;12;2025-05-13;14:53:38;51.935539;4.194812;-11943.699219;-6898.629883;4.7;346.82;36.30;7.77;27.0;399.00;399.00;399.00;399.00;
457299;101845;-43.24;32.0;0.972;-0.532;-10.338;0.021;-0.063;-0.013;-4.136;76.887;64.319;2.8;-5.3;268.6;34.6;12;2025-05-13;14:53:38;51.935539;4.194812;-11943.699219;-6898.629883;4.7;346.82;37.35;7.88;27.0;399.00;399.00;399.00;399.00;
457399;101846;-43.29;32.0;0.982;-0.464;-10.343;0.021;-0.067;-0.014;-4.136;76.887;64.319;2.8;-5.2;268.6;34.6;12;2025-05-13;14:53:38;51.935539;4.194812;-11943.699219;-6898.629883;4.7;346.82;36.30;7.77;27.0;399.00;399.00;399.00;399.00;
457499;101843;-43.10;32.0;0.962;-0.512;-10.448;0.021;-0.064;-0.012;-4.136;76.887;64.319;2.8;-5.2;268.6;34.6;12;2025-05-13;14:53:38;51.935539;4.194812;-11943.699219;-6898.629883;4.7;346.82;36.30;7.77;27.0;399.00;399.00;399.00;399.00;
457599;101844;-43.17;32.0;1.025;-0.536;-10.391;0.025;-0.062;-0.011;-4.136;76.887;64.319;2.8;-5.2;268.6;34.6;12;2025-05-13;14:53:39;51.935543;4.194811;-11943.767578;-6898.574219;4.7;346.82;36.30;7.77;27.0;399.00;399.00;399.00;399.00;
457699;101844;-43.17;32.0;0.972;-0.498;-10.338;0.023;-0.066;-0.010;-4.136;76.887;64.319;2.8;-5.2;268.6;34.6;12;2025-05-13;14:53:39;51.935543;4.194811;-11943.767578;-6898.574219;4.7;346.82;31.04;7.18;27.0;399.00;399.00;399.00;399.00;
457799;101843;-43.11;32.0;1.010;-0.508;-10.362;0.025;-0.061;-0.016;-4.136;76.887;64.319;2.8;-5.2;268.6;34.5;12;2025-05-13;14:53:39;51.935543;4.194811;-11943.767578;-6898.574219;4.7;346.82;33.14;7.42;27.0;399.00;399.00;399.00;399.00;
457899;101843;-43.06;32.0;0.982;-0.532;-10.391;0.023;-0.066;-0.011;-4.136;76.887;64.319;2.8;-5.2;268.6;34.6;12;2025-05-13;14:53:39;51.935543;4.194811;-11943.767578;-6898.574219;4.7;346.82;31.04;7.18;27.0;399.00;399.00;399.00;399.00;
457999;101843;-43.06;32.0;0.986;-0.464;-10.348;0.025;-0.064;-0.013;-4.136;76.887;64.319;2.8;-5.2;268.6;34.6;12;2025-05-13;14:53:39;51.935543;4.194811;-11943.767578;-6898.574219;4.7;346.82;33.14;7.42;27.0;399.00;399.00;399.00;399.00;
458099;101845;-43.14;32.0;1.010;-0.555;-10.425;0.022;-0.064;-0.014;-4.136;76.887;64.319;2.8;-5.2;268.6;34.6;12;2025-05-13;14:53:39;51.935543;4.194811;-11943.767578;-6898.574219;4.7;346.82;28.93;6.93;27.0;399.00;399.00;399.00;399.00;
458199;101843;-43.10;32.0;0.991;-0.541;-10.444;0.022;-0.062;-0.011;-4.136;76.887;64.319;2.8;-5.2;268.6;34.6;12;2025-05-13;14:53:39;51.935543;4.194811;-11943.767578;-6898.574219;4.7;346.82;28.93;6.93;27.0;399.00;399.00;399.00;399.00;
458299;101845;-43.27;32.0;0.967;-0.488;-10.357;0.025;-0.062;-0.014;-4.495;76.887;64.319;2.8;-5.2;268.6;34.6;12;2025-05-13;14:53:39;51.935543;4.194811;-11943.767578;-6898.574219;4.7;346.82;37.35;7.88;27.0;399.00;399.00;399.00;399.00;
458399;101842;-43.00;32.0;1.006;-0.560;-10.381;0.022;-0.064;-0.013;-5.574;77.604;63.972;2.9;-5.3;268.6;34.6;12;2025-05-13;14:53:39;51.935543;4.194811;-11943.767578;-6898.574219;4.7;346.82;36.30;7.77;27.0;399.00;399.00;399.00;399.00;
458499;101843;-43.10;32.0;0.948;-0.546;-10.343;0.025;-0.064;-0.016;-5.574;77.604;63.972;2.9;-5.3;268.7;34.6;12;2025-05-13;14:53:39;51.935543;4.194811;-11943.767578;-6898.574219;4.7;346.82;39.45;8.10;27.0;399.00;399.00;399.00;399.00;
458599;101845;-43.21;32.0;0.943;-0.551;-10.372;0.022;-0.062;-0.015;-5.574;77.604;63.972;2.9;-5.3;268.7;34.6;12;2025-05-13;14:53:40;51.935543;4.194810;-11943.801758;-6898.555664;4.7;346.82;36.30;7.77;27.0;399.00;399.00;399.00;399.00;
458699;101845;-43.24;32.0;1.010;-0.503;-10.391;0.020;-0.063;-0.014;-5.574;77.604;63.972;2.9;-5.3;268.7;34.6;12;2025-05-13;14:53:40;51.935543;4.194810;-11943.801758;-6898.555664;4.8;346.82;36.30;7.77;27.0;399.00;399.00;399.00;399.00;
458799;101844;-43.17;32.0;1.025;-0.498;-10.353;0.023;-0.067;-0.015;-5.574;77.604;63.972;2.9;-5.3;268.7;34.6;12;2025-05-13;14:53:40;51.935543;4.194810;-11943.801758;-6898.555664;4.8;346.82;33.14;7.42;27.0;399.00;399.00;399.00;399.00;
458899;101844;-43.14;32.0;0.972;-0.503;-10.391;0.023;-0.066;-0.015;-5.574;77.604;63.972;2.9;-5.4;268.7;34.6;12;2025-05-13;14:53:40;51.935543;4.194810;-11943.801758;-6898.555664;4.8;346.82;37.35;7.88;27.0;399.00;399.00;399.00;399.00;
458999;101845;-43.27;32.0;0.943;-0.527;-10.377;0.025;-0.066;-0.017;-5.574;77.604;63.972;2.9;-5.4;268.8;34.5;12;2025-05-13;14:53:40;51.935543;4.194810;-11943.801758;-6898.555664;4.8;346.82;37.35;7.88;27.0;399.00;399.00;399.00;399.00;
459099;101844;-43.18;32.0;1.001;-0.484;-10.305;0.023;-0.064;-0.011;-5.574;77.604;63.972;2.9;-5.4;268.8;34.6;12;2025-05-13;14:53:40;51.935543;4.194810;-11943.801758;-6898.555664;4.8;346.82;37.35;7.88;27.0;399.00;399.00;399.00;399.00;
459199;101842;-42.97;32.0;1.015;-0.498;-10.410;0.025;-0.063;-0.015;-5.574;77.604;63.972;2.9;-5.4;268.8;34.6;12;2025-05-13;14:53:40;51.935543;4.194810;-11943.801758;-6898.555664;4.8;346.82;36.30;7.77;27.0;399.00;399.00;399.00;399.00;
459299;101843;-43.06;32.0;1.001;-0.541;-10.444;0.025;-0.064;-0.012;-5.574;77.604;63.972;2.9;-5.4;268.8;34.6;12;2025-05-13;14:53:40;51.935543;4.194810;-11943.801758;-6898.555664;4.8;346.82;33.14;7.42;27.0;399.00;399.00;399.00;399.00;
459399;101845;-43.28;32.0;1.006;-0.488;-10.362;0.025;-0.064;-0.014;-5.574;77.604;63.972;2.9;-5.4;268.8;34.6;12;2025-05-13;14:53:40;51.935543;4.194810;-11943.801758;-6898.555664;4.8;346.82;36.30;7.77;27.0;399.00;399.00;399.00;399.00;
459499;101844;-43.13;32.0;0.962;-0.479;-10.396;0.021;-0.066;-0.010;-5.574;77.604;63.972;2.9;-5.4;268.9;34.6;12;2025-05-13;14:53:40;51.935543;4.194810;-11943.801758;-6898.555664;4.8;346.82;33.14;7.42;27.0;399.00;399.00;399.00;399.00;
459599;101843;-43.10;32.0;0.986;-0.522;-10.482;0.022;-0.064;-0.010;-5.574;77.604;63.972;2.9;-5.4;268.9;34.6;12;2025-05-13;14:53:41;51.935543;4.194810;-11943.847656;-6898.537109;4.8;346.82;31.04;7.18;27.0;399.00;399.00;399.00;399.00;
459699;101844;-43.20;32.0;0.962;-0.508;-10.396;0.023;-0.063;-0.012;-5.574;77.604;63.972;2.9;-5.4;268.9;34.6;12;2025-05-13;14:53:41;51.935543;4.194810;-11943.847656;-6898.537109;4.9;346.82;36.30;7.77;27.0;399.00;399.00;399.00;399.00;
459799;101848;-43.52;32.0;1.001;-0.450;-10.415;0.022;-0.065;-0.010;-5.574;77.604;63.972;2.8;-5.4;268.9;34.5;12;2025-05-13;14:53:41;51.935543;4.194810;-11943.847656;-6898.537109;4.9;346.82;36.30;7.77;27.0;399.00;399.00;399.00;399.00;
459899;101847;-43.44;32.0;0.962;-0.517;-10.391;0.025;-0.067;-0.014;-5.574;77.604;63.972;2.8;-5.4;268.9;34.6;12;2025-05-13;14:53:41;51.935543;4.194810;-11943.847656;-6898.537109;4.9;346.82;33.14;7.42;27.0;399.00;399.00;399.00;399.00;
459999;101844;-43.17;32.0;0.953;-0.541;-10.429;0.022;-0.063;-0.012;-5.574;77.604;63.972;2.9;-5.4;268.9;34.5;12;2025-05-13;14:53:41;51.935543;4.194810;-11943.847656;-6898.537109;4.9;346.82;33.14;7.42;27.0;399.00;399.00;399.00;399.00;
460099;101846;-43.32;32.0;0.996;-0.551;-10.405;0.026;-0.066;-0.017;-3.416;79.038;63.972;2.9;-5.4;268.9;34.6;12;2025-05-13;14:53:41;51.935543;4.194810;-11943.847656;-6898.537109;4.9;346.82;28.93;6.93;27.0;399.00;399.00;399.00;399.00;
460199;101845;-43.21;32.0;0.996;-0.512;-10.338;0.022;-0.067;-0.011;-4.675;78.859;65.533;2.9;-5.4;268.9;34.6;12;2025-05-13;14:53:41;51.935543;4.194810;-11943.847656;-6898.537109;4.9;346.82;31.04;7.18;27.0;399.00;399.00;399.00;399.00;
460299;101843;-43.11;32.0;0.948;-0.570;-10.391;0.027;-0.062;-0.013;-4.675;78.859;65.533;2.9;-5.4;268.9;34.6;12;2025-05-13;14:53:41;51.935543;4.194810;-11943.847656;-6898.537109;4.9;346.82;31.04;7.18;27.0;399.00;399.00;399.00;399.00;
460399;101843;-43.07;32.0;0.967;-0.512;-10.396;0.022;-0.061;-0.011;-4.675;78.859;65.533;2.9;-5.3;268.9;34.6;12;2025-05-13;14:53:41;51.935543;4.194810;-11943.847656;-6898.537109;4.9;346.82;37.35;7.88;27.0;399.00;399.00;399.00;399.00;
460499;101845;-43.28;32.0;1.015;-0.488;-10.314;0.021;-0.063;-0.011;-4.675;78.859;65.533;2.9;-5.3;268.9;34.6;12;2025-05-13;14:53:41;51.935543;4.194810;-11943.847656;-6898.537109;4.9;346.82;31.04;7.18;27.0;399.00;399.00;399.00;399.00;
460599;101844;-43.17;32.0;0.977;-0.512;-10.381;0.027;-0.067;-0.014;-4.675;78.859;65.533;2.9;-5.3;268.9;34.6;12;2025-05-13;14:53:42;51.935543;4.194808;-11943.961914;-6898.500000;4.9;346.82;31.04;7.18;27.0;399.00;399.00;399.00;399.00;
460699;101842;-43.00;32.0;0.996;-0.560;-10.439;0.023;-0.063;-0.014;-4.675;78.859;65.533;2.9;-5.3;268.9;34.6;12;2025-05-13;14:53:42;51.935543;4.194808;-11943.961914;-6898.500000;5.0;346.82;33.14;7.42;27.0;399.00;399.00;399.00;399.00;
460799;101842;-42.98;32.0;0.982;-0.498;-10.377;0.021;-0.062;-0.013;-4.675;78.859;65.533;2.9;-5.3;268.9;34.6;12;2025-05-13;14:53:42;51.935543;4.194808;-11943.961914;-6898.500000;5.0;346.82;36.30;7.77;27.0;399.00;399.00;399.00;399.00;
460899;101843;-43.09;32.0;0.972;-0.460;-10.286;0.025;-0.063;-0.010;-4.675;78.859;65.533;2.9;-5.3;268.9;34.6;12;2025-05-13;14:53:42;51.935543;4.194808;-11943.961914;-6898.500000;5.0;346.82;36.30;7.77;27.0;399.00;399.00;399.00;399.00;
460999;101846;-43.30;32.0;1.015;-0.474;-10.372;0.022;-0.065;-0.014;-4.675;78.859;65.533;2.9;-5.3;268.8;34.6;12;2025-05-13;14:53:42;51.935543;4.194808;-11943.961914;-6898.500000;5.0;346.82;33.14;7.42;27.0;399.00;399.00;399.00;399.00;
461099;101846;-43.34;32.0;0.982;-0.517;-10.367;0.026;-0.064;-0.017;-4.675;78.859;65.533;2.9;-5.3;268.8;34.6;12;2025-05-13;14:53:42;51.935543;4.194808;-11943.961914;-6898.500000;5.0;346.82;36.30;7.77;27.0;399.00;399.00;399.00;399.00;
461199;101843;-43.09;32.0;0.967;-0.484;-10.362;0.021;-0.064;-0.014;-4.675;78.859;65.533;2.8;-5.3;268.8;34.6;12;2025-05-13;14:53:42;51.935543;4.194808;-11943.961914;-6898.500000;5.0;346.82;36.30;7.77;27.0;399.00;399.00;399.00;399.00;
461299;101843;-43.09;32.0;0.986;-0.474;-10.381;0.019;-0.064;-0.015;-4.675;78.859;65.533;2.8;-5.3;268.8;34.6;12;2025-05-13;14:53:42;51.935543;4.194808;-11943.961914;-6898.500000;5.0;346.82;28.93;6.93;27.0;399.00;399.00;399.00;399.00;
461399;101844;-43.13;32.0;0.967;-0.508;-10.405;0.025;-0.063;-0.010;-4.675;78.859;65.533;2.8;-5.3;268.8;34.6;12;2025-05-13;14:53:42;51.935543;4.194808;-11943.961914;-6898.500000;5.0;346.82;36.30;7.77;27.0;399.00;399.00;399.00;399.00;
461499;101843;-43.07;32.0;0.986;-0.460;-10.372;0.021;-0.065;-0.013;-4.675;78.859;65.533;2.8;-5.3;268.8;34.6;12;2025-05-13;14:53:42;51.935543;4.194808;-11943.961914;-6898.500000;5.0;346.82;33.14;7.42;27.0;399.00;399.00;399.00;399.00;
461599;101844;-43.14;32.0;1.001;-0.431;-10.396;0.021;-0.063;-0.010;-4.675;78.859;65.533;2.8;-5.3;268.8;34.6;12;2025-05-13;14:53:43;51.935543;4.194808;-11944.007812;-6898.462891;5.0;346.82;31.04;7.18;27.0;399.00;399.00;399.00;399.00;
461699;101843;-43.09;32.0;0.972;-0.536;-10.472;0.025;-0.063;-0.015;-4.675;78.859;65.533;2.8;-5.3;268.8;34.6;12;2025-05-13;14:53:43;51.935543;4.194808;-11944.007812;-6898.462891;5.0;346.82;33.14;7.42;27.0;399.00;399.00;399.00;399.00;
461799;101846;-43.32;32.0;0.948;-0.517;-10.410;0.026;-0.062;-0.013;-4.675;78.859;65.533;2.8;-5.3;268.8;34.6;12;2025-05-13;14:53:43;51.935543;4.194808;-11944.007812;-6898.462891;5.0;346.82;37.35;7.88;27.0;399.00;399.00;399.00;399.00;
461899;101844;-43.13;32.0;0.982;-0.484;-10.338;0.023;-0.062;-0.012;-4.675;78.859;65.533;2.8;-5.3;268.8;34.6;12;2025-05-13;14:53:43;51.935543;4.194808;-11944.007812;-6898.462891;5.0;346.82;37.35;7.88;27.0;399.00;399.00;399.00;399.00;
461999;101843;-43.10;32.0;1.001;-0.512;-10.401;0.019;-0.065;-0.010;-4.675;78.859;65.533;2.8;-5.3;268.8;34.6;12;2025-05-13;14:53:43;51.935543;4.194808;-11944.007812;-6898.462891;5.0;346.82;33.14;7.42;27.0;399.00;399.00;399.00;399.00;
462099;101844;-43.18;32.0;1.006;-0.522;-10.410;0.022;-0.059;-0.013;-4.495;77.962;62.585;2.8;-5.3;268.8;34.6;12;2025-05-13;14:53:43;51.935543;4.194808;-11944.007812;-6898.462891;5.0;346.82;39.45;8.10;27.0;399.00;399.00;399.00;399.00;
462199;101844;-43.13;32.0;1.039;-0.488;-10.357;0.019;-0.067;-0.016;-4.315;77.425;62.065;2.8;-5.3;268.8;34.6;12;2025-05-13;14:53:43;51.935543;4.194808;-11944.007812;-6898.462891;5.0;346.82;36.30;7.77;27.0;399.00;399.00;399.00;399.00;
462299;101845;-43.25;32.0;0.996;-0.527;-10.372;0.022;-0.063;-0.016;-4.315;77.425;62.065;2.8;-5.3;268.8;34.6;12;2025-05-13;14:53:43;51.935543;4.194808;-11944.007812;-6898.462891;5.0;346.82;28.93;6.93;27.0;399.00;399.00;399.00;399.00;
462399;101844;-43.16;32.0;0.958;-0.546;-10.362;0.021;-0.062;-0.011;-4.315;77.425;62.065;2.8;-5.3;268.8;34.6;12;2025-05-13;14:53:43;51.935543;4.194808;-11944.007812;-6898.462891;5.0;346.82;36.30;7.77;27.0;399.00;399.00;399.00;399.00;
462499;101847;-43.40;32.0;0.977;-0.474;-10.252;0.023;-0.062;-0.013;-4.315;77.425;62.065;2.8;-5.3;268.8;34.6;12;2025-05-13;14:53:43;51.935543;4.194808;-11944.007812;-6898.462891;5.0;346.82;28.93;6.93;27.0;399.00;399.00;399.00;399.00;
462599;101845;-43.21;32.0;1.015;-0.474;-10.324;0.020;-0.065;-0.011;-4.315;77.425;62.065;2.8;-5.3;268.8;34.6;12;2025-05-13;14:53:44;51.935543;4.194807;-11944.041992;-6898.500000;5.0;346.82;37.35;7.88;27.0;399.00;399.00;399.00;399.00;
462699;101843;-43.06;32.0;0.972;-0.522;-10.377;0.023;-0.063;-0.013;-4.315;77.425;62.065;2.8;-5.3;268.8;34.6;12;2025-05-13;14:53:44;51.935543;4.194807;-11944.041992;-6898.500000;5.2;346.82;37.35;7.88;27.0;399.00;399.00;399.00;399.00;
462799;101843;-43.07;32.0;0.991;-0.498;-10.348;0.025;-0.062;-0.010;-4.315;77.425;62.065;2.8;-5.3;268.8;34.6;12;2025-05-13;14:53:44;51.935543;4.194807;-11944.041992;-6898.500000;5.2;346.82;33.14;7.42;27.0;399.00;399.00;399.00;399.00;
462899;101845;-43.26;32.0;1.001;-0.488;-10.410;0.025;-0.068;-0.012;-4.315;77.425;62.065;2.8;-5.3;268.8;34.6;12;2025-05-13;14:53:44;51.935543;4.194807;-11944.041992;-6898.500000;5.2;346.82;36.30;7.77;27.0;399.00;399.00;399.00;399.00;
462999;101841;-42.91;32.0;1.015;-0.517;-10.405;0.019;-0.065;-0.016;-4.315;77.425;62.065;2.8;-5.3;268.8;34.6;12;2025-05-13;14:53:44;51.935543;4.194807;-11944.041992;-6898.500000;5.2;346.82;37.35;7.88;27.0;399.00;399.00;399.00;399.00;
463099;101843;-43.12;32.0;1.030;-0.512;-10.386;0.019;-0.066;-0.016;-4.315;77.425;62.065;2.8;-5.3;268.8;34.6;12;2025-05-13;14:53:44;51.935543;4.194807;-11944.041992;-6898.500000;5.2;346.82;40.51;8.20;27.0;399.00;399.00;399.00;399.00;
463199;101845;-43.22;32.0;0.958;-0.541;-10.353;0.021;-0.065;-0.012;-4.315;77.425;62.065;2.8;-5.3;268.8;34.6;12;2025-05-13;14:53:44;51.935543;4.194807;-11944.041992;-6898.500000;5.2;346.82;37.35;7.88;27.0;399.00;399.00;399.00;399.00;
463299;101843;-43.10;32.0;0.977;-0.546;-10.420;0.022;-0.062;-0.019;-4.315;77.425;62.065;2.8;-5.3;268.8;34.6;12;2025-05-13;14:53:44;51.935543;4.194807;-11944.041992;-6898.500000;5.2;346.82;37.35;7.88;27.0;399.00;399.00;399.00;399.00;
463399;101845;-43.24;32.0;0.972;-0.460;-10.329;0.025;-0.065;-0.013;-4.315;77.425;62.065;2.8;-5.3;268.8;34.6;12;2025-05-13;14:53:44;51.935543;4.194807;-11944.041992;-6898.500000;5.2;346.82;31.04;7.18;27.0;399.00;399.00;399.00;399.00;
463499;101842;-43.02;32.0;0.977;-0.546;-10.396;0.020;-0.064;-0.019;-4.315;77.425;62.065;2.8;-5.3;268.8;34.6;12;2025-05-13;14:53:44;51.935543;4.194807;-11944.041992;-6898.500000;5.2;346.82;36.30;7.77;27.0;399.00;399.00;399.00;399.00;
463599;101847;-43.39;32.0;0.986;-0.469;-10.353;0.021;-0.069;-0.017;-4.315;77.425;62.065;2.8;-5.3;268.8;34.6;12;2025-05-13;14:53:45;51.935543;4.194807;-11944.041992;-6898.462891;5.2;346.82;36.30;7.77;27.0;399.00;399.00;399.00;399.00;
463699;101843;-43.12;32.0;1.034;-0.517;-10.420;0.025;-0.065;-0.012;-4.315;77.425;62.065;2.8;-5.3;268.8;34.6;12;2025-05-13;14:53:45;51.935543;4.194807;-11944.041992;-6898.462891;5.2;346.82;33.14;7.42;27.0;399.00;399.00;399.00;399.00;
463799;101844;-43.15;32.0;0.977;-0.479;-10.357;0.021;-0.064;-0.016;-4.315;77.425;62.065;2.8;-5.3;268.8;34.6;12;2025-05-13;14:53:45;51.935543;4.194807;-11944.041992;-6898.462891;5.2;346.82;33.14;7.42;27.0;399.00;399.00;399.00;399.00;
463899;101843;-43.05;32.0;0.991;-0.464;-10.439;0.021;-0.065;-0.014;-4.315;77.425;62.065;2.8;-5.3;268.8;34.6;12;2025-05-13;14:53:45;51.935543;4.194807;-11944.041992;-6898.462891;5.2;346.82;33.14;7.42;27.0;399.00;399.00;399.00;399.00;
463999;101843;-43.09;32.0;0.958;-0.508;-10.444;0.025;-0.065;-0.013;-4.136;77.962;62.932;2.8;-5.2;268.8;34.6;12;2025-05-13;14:53:45;51.935543;4.194807;-11944.041992;-6898.462891;5.2;346.82;33.14;7.42;27.0;399.00;399.00;399.00;399.00;
464099;101844;-43.14;32.0;0.967;-0.527;-10.386;0.023;-0.061;-0.014;-5.754;77.066;64.146;2.8;-5.3;268.8;34.6;12;2025-05-13;14:53:45;51.935543;4.194807;-11944.041992;-6898.462891;5.2;346.82;31.04;7.18;27.0;399.00;399.00;399.00;399.00;
464199;101845;-43.27;32.0;1.001;-0.527;-10.362;0.023;-0.064;-0.016;-5.754;77.066;64.146;2.8;-5.3;268.8;34.6;12;2025-05-13;14:53:45;51.935543;4.194807;-11944.041992;-6898.462891;5.2;346.82;31.04;7.18;27.0;399.00;399.00;399.00;399.00;
464299;101845;-43.26;32.0;1.006;-0.508;-10.353;0.022;-0.063;-0.010;-5.754;77.066;64.146;2.8;-5.3;268.9;34.6;12;2025-05-13;14:53:45;51.935543;4.194807;-11944.041992;-6898.462891;5.2;346.82;33.14;7.42;27.0;399.00;399.00;399.00;399.00;
464399;101842;-43.02;32.0;0.939;-0.536;-10.425;0.023;-0.063;-0.012;-5.754;77.066;64.146;2.8;-5.3;268.9;34.6;12;2025-05-13;14:53:45;51.935543;4.194807;-11944.041992;-6898.462891;5.2;346.82;31.04;7.18;27.0;399.00;399.00;399.00;399.00;
464499;101844;-43.14;32.0;0.982;-0.488;-10.420;0.025;-0.066;-0.012;-5.754;77.066;64.146;2.8;-5.3;268.9;34.6;12;2025-05-13;14:53:45;51.935543;4.194807;-11944.041992;-6898.462891;5.2;346.82;28.93;6.93;27.0;399.00;399.00;399.00;399.00;
464599;101844;-43.20;32.0;1.001;-0.508;-10.329;0.023;-0.064;-0.011;-5.754;77.066;64.146;2.8;-5.3;268.9;34.6;12;2025-05-13;14:53:46;51.935543;4.194806;-11944.098633;-6898.407227;5.2;346.82;36.30;7.77;27.0;399.00;399.00;399.00;399.00;
464699;101844;-43.14;32.0;1.039;-0.512;-10.415;0.022;-0.064;-0.015;-5.754;77.066;64.146;2.8;-5.4;268.9;34.5;12;2025-05-13;14:53:46;51.935543;4.194806;-11944.098633;-6898.407227;5.3;346.82;36.30;7.77;27.0;399.00;399.00;399.00;399.00;
464799;101844;-43.13;32.0;0.982;-0.508;-10.372;0.023;-0.061;-0.015;-5.754;77.066;64.146;2.8;-5.4;268.9;34.6;12;2025-05-13;14:53:46;51.935543;4.194806;-11944.098633;-6898.407227;5.3;346.82;28.93;6.93;27.0;399.00;399.00;399.00;399.00;
464899;101844;-43.17;32.0;0.986;-0.436;-10.324;0.026;-0.067;-0.017;-5.754;77.066;64.146;2.8;-5.4;269.0;34.6;12;2025-05-13;14:53:46;51.935543;4.194806;-11944.098633;-6898.407227;5.3;346.82;36.30;7.77;27.0;399.00;399.00;399.00;399.00;
464999;101843;-43.10;32.0;1.020;-0.517;-10.353;0.026;-0.067;-0.012;-5.754;77.066;64.146;2.8;-5.4;269.0;34.6;12;2025-05-13;14:53:46;51.935543;4.194806;-11944.098633;-6898.407227;5.3;346.82;36.30;7.77;27.0;399.00;399.00;399.00;399.00;
465099;101841;-42.89;32.0;0.953;-0.532;-10.401;0.026;-0.064;-0.014;-5.754;77.066;64.146;2.8;-5.4;269.0;34.6;12;2025-05-13;14:53:46;51.935543;4.194806;-11944.098633;-6898.407227;5.3;346.82;39.45;8.10;27.0;399.00;399.00;399.00;399.00;
465199;101845;-43.28;32.0;1.039;-0.512;-10.401;0.022;-0.064;-0.010;-5.754;77.066;64.146;2.8;-5.4;269.0;34.6;12;2025-05-13;14:53:46;51.935543;4.194806;-11944.098633;-6898.407227;5.3;346.82;37.35;7.88;27.0;399.00;399.00;399.00;399.00;
465299;101842;-43.00;32.0;0.972;-0.565;-10.401;0.027;-0.064;-0.014;-5.754;77.066;64.146;2.8;-5.4;269.0;34.6;12;2025-05-13;14:53:46;51.935543;4.194806;-11944.098633;-6898.407227;5.3;346.82;33.14;7.42;27.0;399.00;399.00;399.00;399.00;
465399;101843;-43.11;32.0;0.972;-0.575;-10.401;0.021;-0.066;-0.012;-5.754;77.066;64.146;2.9;-5.4;269.0;34.6;12;2025-05-13;14:53:46;51.935543;4.194806;-11944.098633;-6898.407227;5.3;346.82;36.30;7.77;27.0;399.00;399.00;399.00;399.00;
465499;101844;-43.20;32.0;0.948;-0.512;-10.415;0.027;-0.062;-0.013;-5.754;77.066;64.146;2.9;-5.4;269.0;34.6;12;2025-05-13;14:53:46;51.935543;4.194806;-11944.098633;-6898.407227;5.3;346.82;36.30;7.77;27.0;399.00;399.00;399.00;399.00;
465599;101844;-43.13;32.0;1.010;-0.460;-10.372;0.021;-0.064;-0.014;-5.754;77.066;64.146;2.9;-5.4;269.1;34.6;12;2025-05-13;14:53:47;51.935543;4.194806;-11944.087891;-6898.388672;5.3;346.82;33.14;7.42;27.0;399.00;399.00;399.00;399.00;
465699;101843;-43.06;32.0;1.015;-0.426;-10.372;0.021;-0.065;-0.015;-5.754;77.066;64.146;2.8;-5.4;269.1;34.6;12;2025-05-13;14:53:47;51.935543;4.194806;-11944.087891;-6898.388672;5.4;346.82;33.14;7.42;27.0;399.00;399.00;399.00;399.00;
465799;101842;-43.00;32.0;0.991;-0.532;-10.425;0.019;-0.063;-0.014;-5.754;77.066;64.146;2.8;-5.4;269.1;34.6;12;2025-05-13;14:53:47;51.935543;4.194806;-11944.087891;-6898.388672;5.4;346.82;36.30;7.77;27.0;399.00;399.00;399.00;399.00;
465899;101844;-43.14;32.0;1.001;-0.508;-10.319;0.028;-0.065;-0.014;-5.754;77.066;64.146;2.8;-5.5;269.1;34.6;12;2025-05-13;14:53:47;51.935543;4.194806;-11944.087891;-6898.388672;5.4;346.82;31.04;7.18;27.0;399.00;399.00;399.00;399.00;
465999;101844;-43.19;32.0;0.986;-0.484;-10.367;0.023;-0.065;-0.011;-5.754;77.066;64.146;2.8;-5.5;269.1;34.6;12;2025-05-13;14:53:47;51.935543;4.194806;-11944.087891;-6898.388672;5.4;346.82;33.14;7.42;27.0;399.00;399.00;399.00;399.00;
466099;101845;-43.29;32.0;1.020;-0.484;-10.338;0.023;-0.064;-0.014;-6.293;77.604;62.239;2.8;-5.5;269.1;34.6;12;2025-05-13;14:53:47;51.935543;4.194806;-11944.087891;-6898.388672;5.4;346.82;36.30;7.77;27.0;399.00;399.00;399.00;399.00;
466199;101843;-43.04;32.0;0.953;-0.541;-10.377;0.026;-0.065;-0.016;-4.675;78.500;63.452;2.8;-5.4;269.1;34.7;12;2025-05-13;14:53:47;51.935543;4.194806;-11944.087891;-6898.388672;5.4;346.82;33.14;7.42;27.0;399.00;399.00;399.00;399.00;
466299;101844;-43.18;32.0;0.986;-0.532;-10.434;0.025;-0.062;-0.014;-4.675;78.500;63.452;2.8;-5.4;269.1;34.6;12;2025-05-13;14:53:47;51.935543;4.194806;-11944.087891;-6898.388672;5.4;346.82;31.04;7.18;27.0;399.00;399.00;399.00;399.00;
466399;101843;-43.10;32.0;0.953;-0.488;-10.401;0.027;-0.067;-0.016;-4.675;78.500;63.452;2.8;-5.4;269.1;34.6;12;2025-05-13;14:53:47;51.935543;4.194806;-11944.087891;-6898.388672;5.4;346.82;33.14;7.42;27.0;399.00;399.00;399.00;399.00;
466499;101844;-43.16;32.0;1.044;-0.532;-10.372;0.023;-0.064;-0.014;-4.675;78.500;63.452;2.8;-5.4;269.1;34.6;12;2025-05-13;14:53:47;51.935543;4.194806;-11944.087891;-6898.388672;5.4;346.82;36.30;7.77;27.0;399.00;399.00;399.00;399.00;
466599;101844;-43.20;32.0;0.924;-0.536;-10.477;0.023;-0.062;-0.013;-4.675;78.500;63.452;2.9;-5.4;269.1;34.6;12;2025-05-13;14:53:48;51.935543;4.194806;-11944.098633;-6898.333008;5.4;346.82;33.14;7.42;27.0;399.00;399.00;399.00;399.00;
466699;101845;-43.27;32.0;0.977;-0.488;-10.401;0.021;-0.067;-0.013;-4.675;78.500;63.452;2.8;-5.4;269.1;34.6;12;2025-05-13;14:53:48;51.935543;4.194806;-11944.098633;-6898.333008;5.3;346.82;28.93;6.93;27.0;399.00;399.00;399.00;399.00;
466799;101845;-43.27;32.0;0.986;-0.541;-10.334;0.019;-0.064;-0.013;-4.675;78.500;63.452;2.9;-5.3;269.1;34.6;12;2025-05-13;14:53:48;51.935543;4.194806;-11944.098633;-6898.333008;5.3;346.82;36.30;7.77;27.0;399.00;399.00;399.00;399.00;
466899;101842;-43.02;32.0;1.015;-0.474;-10.420;0.025;-0.063;-0.012;-4.675;78.500;63.452;2.8;-5.3;269.1;34.6;12;2025-05-13;14:53:48;51.935543;4.194806;-11944.098633;-6898.333008;5.3;346.82;37.35;7.88;27.0;399.00;399.00;399.00;399.00;
466999;101844;-43.20;32.0;0.967;-0.541;-10.444;0.023;-0.065;-0.013;-4.675;78.500;63.452;2.9;-5.3;269.1;34.6;12;2025-05-13;14:53:48;51.935543;4.194806;-11944.098633;-6898.333008;5.3;346.82;36.30;7.77;27.0;399.00;399.00;399.00;399.00;
467099;101844;-43.13;32.0;1.006;-0.560;-10.367;0.026;-0.064;-0.011;-4.675;78.500;63.452;2.9;-5.3;269.1;34.6;12;2025-05-13;14:53:48;51.935543;4.194806;-11944.098633;-6898.333008;5.3;346.82;28.93;6.93;27.0;399.00;399.00;399.00;399.00;
467199;101839;-42.76;32.0;0.982;-0.498;-10.381;0.025;-0.060;-0.016;-4.675;78.500;63.452;2.9;-5.3;269.0;34.6;12;2025-05-13;14:53:48;51.935543;4.194806;-11944.098633;-6898.333008;5.3;346.82;36.30;7.77;27.0;399.00;399.00;399.00;399.00;
467299;101839;-42.75;32.0;0.972;-0.455;-10.367;0.022;-0.062;-0.014;-4.675;78.500;63.452;2.8;-5.3;269.0;34.7;12;2025-05-13;14:53:48;51.935543;4.194806;-11944.098633;-6898.333008;5.3;346.82;33.14;7.42;27.0;399.00;399.00;399.00;399.00;
467399;101842;-43.03;32.0;0.986;-0.536;-10.405;0.026;-0.062;-0.016;-4.675;78.500;63.452;2.9;-5.3;269.0;34.6;12;2025-05-13;14:53:48;51.935543;4.194806;-11944.098633;-6898.333008;5.3;346.82;28.93;6.93;27.0;399.00;399.00;399.00;399.00;
467499;101842;-42.99;32.0;0.939;-0.488;-10.405;0.021;-0.067;-0.015;-4.675;78.500;63.452;2.8;-5.3;269.0;34.6;12;2025-05-13;14:53:48;51.935543;4.194806;-11944.098633;-6898.333008;5.3;346.82;33.14;7.42;27.0;399.00;399.00;399.00;399.00;
467599;101843;-43.06;32.0;1.001;-0.493;-10.391;0.021;-0.063;-0.011;-4.675;78.500;63.452;2.8;-5.3;269.0;34.7;12;2025-05-13;14:53:49;51.935543;4.194806;-11944.122070;-6898.277344;5.3;346.82;33.14;7.42;27.0;399.00;399.00;399.00;399.00;
467699;101842;-43.03;32.0;1.044;-0.517;-10.377;0.023;-0.067;-0.014;-4.675;78.500;63.452;2.8;-5.3;269.0;34.7;12;2025-05-13;14:53:49;51.935543;4.194806;-11944.122070;-6898.277344;5.3;346.82;31.04;7.18;27.0;399.00;399.00;399.00;399.00;
467799;101841;-42.89;32.0;0.958;-0.517;-10.415;0.022;-0.063;-0.015;-4.675;78.500;63.452;2.8;-5.3;269.0;34.6;12;2025-05-13;14:53:49;51.935543;4.194806;-11944.122070;-6898.277344;5.3;346.82;36.30;7.77;27.0;399.00;399.00;399.00;399.00;
467899;101841;-42.89;32.0;1.039;-0.484;-10.396;0.025;-0.064;-0.011;-4.495;76.887;62.932;2.8;-5.3;269.0;34.6;12;2025-05-13;14:53:49;51.935543;4.194806;-11944.122070;-6898.277344;5.3;346.82;31.04;7.18;27.0;399.00;399.00;399.00;399.00;
467999;101843;-43.12;32.0;1.015;-0.498;-10.420;0.025;-0.061;-0.018;-4.136;75.812;63.626;2.8;-5.3;269.0;34.7;12;2025-05-13;14:53:49;51.935543;4.194806;-11944.122070;-6898.277344;5.3;346.82;36.30;7.77;27.0;399.00;399.00;399.00;399.00;
468099;101842;-42.99;32.0;0.948;-0.546;-10.401;0.025;-0.069;-0.013;-4.136;75.812;63.626;2.8;-5.2;269.0;34.6;12;2025-05-13;14:53:49;51.935543;4.194806;-11944.122070;-6898.277344;5.3;346.82;39.45;8.10;27.0;399.00;399.00;399.00;399.00;
468199;101843;-43.06;32.0;0.982;-0.493;-10.362;0.021;-0.065;-0.016;-4.136;75.812;63.626;2.8;-5.2;269.0;34.6;12;2025-05-13;14:53:49;51.935543;4.194806;-11944.122070;-6898.277344;5.3;346.82;36.30;7.77;27.0;399.00;399.00;399.00;399.00;
468299;101843;-43.10;32.0;0.967;-0.474;-10.314;0.021;-0.063;-0.013;-4.136;75.812;63.626;2.8;-5.2;269.0;34.6;12;2025-05-13;14:53:49;51.935543;4.194806;-11944.122070;-6898.277344;5.3;346.82;33.14;7.42;27.0;399.00;399.00;399.00;399.00;
468399;101840;-42.83;32.0;1.039;-0.522;-10.444;0.025;-0.061;-0.009;-4.136;75.812;63.626;2.8;-5.2;268.9;34.6;12;2025-05-13;14:53:49;51.935543;4.194806;-11944.122070;-6898.277344;5.3;346.82;33.14;7.42;27.0;399.00;399.00;399.00;399.00;
468499;101842;-43.00;32.0;0.967;-0.522;-10.405;0.021;-0.059;-0.014;-4.136;75.812;63.626;2.8;-5.2;268.9;34.6;12;2025-05-13;14:53:49;51.935543;4.194806;-11944.122070;-6898.277344;5.3;346.82;33.14;7.42;27.0;399.00;399.00;399.00;399.00;
468599;101843;-43.09;32.0;0.962;-0.469;-10.410;0.021;-0.065;-0.013;-4.136;75.812;63.626;2.8;-5.2;268.9;34.6;12;2025-05-13;14:53:50;51.935543;4.194806;-11944.087891;-6898.258789;5.3;346.82;33.14;7.42;27.0;399.00;399.00;399.00;399.00;
468699;101840;-42.82;32.0;0.982;-0.479;-10.353;0.022;-0.065;-0.015;-4.136;75.812;63.626;2.8;-5.2;268.9;34.6;12;2025-05-13;14:53:50;51.935543;4.194806;-11944.087891;-6898.258789;5.3;346.82;31.04;7.18;27.0;399.00;399.00;399.00;399.00;
468799;101841;-42.93;32.0;0.982;-0.536;-10.429;0.025;-0.060;-0.014;-4.136;75.812;63.626;2.8;-5.2;268.9;34.6;12;2025-05-13;14:53:50;51.935543;4.194806;-11944.087891;-6898.258789;5.3;346.82;31.04;7.18;27.0;399.00;399.00;399.00;399.00;
468899;101841;-42.94;32.0;0.962;-0.551;-10.477;0.027;-0.064;-0.011;-4.136;75.812;63.626;2.8;-5.2;268.9;34.7;12;2025-05-13;14:53:50;51.935543;4.194806;-11944.087891;-6898.258789;5.3;346.82;31.04;7.18;27.0;399.00;399.00;399.00;399.00;
468999;101842;-43.01;32.0;1.001;-0.474;-10.334;0.021;-0.065;-0.012;-4.136;75.812;63.626;2.8;-5.2;268.9;34.6;12;2025-05-13;14:53:50;51.935543;4.194806;-11944.087891;-6898.258789;5.3;346.82;37.35;7.88;27.0;399.00;399.00;399.00;399.00;
469099;101842;-43.02;32.0;0.948;-0.532;-10.386;0.026;-0.060;-0.016;-4.136;75.812;63.626;2.8;-5.1;268.9;34.7;12;2025-05-13;14:53:50;51.935543;4.194806;-11944.087891;-6898.258789;5.3;346.82;33.14;7.42;27.0;399.00;399.00;399.00;399.00;
469199;101844;-43.12;32.0;1.006;-0.479;-10.353;0.023;-0.065;-0.014;-4.136;75.812;63.626;2.8;-5.2;268.9;34.6;12;2025-05-13;14:53:50;51.935543;4.194806;-11944.087891;-6898.258789;5.3;346.82;36.30;7.77;27.0;399.00;399.00;399.00;399.00;
469299;101845;-43.22;32.0;0.929;-0.493;-10.391;0.023;-0.064;-0.013;-4.136;75.812;63.626;2.8;-5.1;268.9;34.7;12;2025-05-13;14:53:50;51.935543;4.194806;-11944.087891;-6898.258789;5.3;346.82;28.93;6.93;27.0;399.00;399.00;399.00;399.00;
469399;101845;-43.26;32.0;0.948;-0.546;-10.401;0.025;-0.066;-0.017;-4.136;75.812;63.626;2.8;-5.1;268.8;34.7;12;2025-05-13;14:53:50;51.935543;4.194806;-11944.087891;-6898.258789;5.3;346.82;31.04;7.18;27.0;399.00;399.00;399.00;399.00;
469499;101842;-43.03;32.0;0.991;-0.512;-10.334;0.021;-0.068;-0.014;-4.136;75.812;63.626;2.8;-5.1;268.8;34.7;12;2025-05-13;14:53:50;51.935543;4.194806;-11944.087891;-6898.258789;5.3;346.82;31.04;7.18;27.0;399.00;399.00;399.00;399.00;
469599;101842;-43.02;32.0;0.986;-0.445;-10.343;0.020;-0.061;-0.010;-4.136;75.812;63.626;2.8;-5.1;268.8;34.6;12;2025-05-13;14:53:51;51.935543;4.194806;-11944.110352;-6898.240234;5.3;346.82;36.30;7.77;27.0;399.00;399.00;399.00;399.00;
469699;101843;-43.12;32.0;0.996;-0.527;-10.444;0.021;-0.065;-0.018;-4.136;75.812;63.626;2.8;-5.1;268.8;34.7;12;2025-05-13;14:53:51;51.935543;4.194806;-11944.110352;-6898.240234;5.3;346.82;31.04;7.18;27.0;399.00;399.00;399.00;399.00;
469799;101845;-43.25;32.0;0.982;-0.512;-10.391;0.026;-0.064;-0.012;-4.136;75.812;63.626;2.8;-5.1;268.8;34.6;12;2025-05-13;14:53:51;51.935543;4.194806;-11944.110352;-6898.240234;5.3;346.82;33.14;7.42;27.0;399.00;399.00;399.00;399.00;
469899;101844;-43.17;32.0;1.034;-0.493;-10.372;0.025;-0.062;-0.015;-3.956;78.859;63.452;2.8;-5.1;268.8;34.6;12;2025-05-13;14:53:51;51.935543;4.194806;-11944.110352;-6898.240234;5.3;346.82;33.14;7.42;27.0;399.00;399.00;399.00;399.00;
469999;101844;-43.19;32.0;0.958;-0.541;-10.367;0.026;-0.061;-0.014;-3.956;77.066;63.799;2.8;-5.1;268.8;34.7;12;2025-05-13;14:53:51;51.935543;4.194806;-11944.110352;-6898.240234;5.3;346.82;33.14;7.42;27.0;399.00;399.00;399.00;399.00;
470099;101842;-42.98;32.0;0.953;-0.508;-10.405;0.025;-0.062;-0.011;-3.956;77.066;63.799;2.8;-5.1;268.8;34.6;12;2025-05-13;14:53:51;51.935543;4.194806;-11944.110352;-6898.240234;5.3;346.82;33.14;7.42;27.0;399.00;399.00;399.00;399.00;
470199;101844;-43.16;32.0;0.967;-0.493;-10.343;0.026;-0.063;-0.017;-3.956;77.066;63.799;2.8;-5.1;268.8;34.6;12;2025-05-13;14:53:51;51.935543;4.194806;-11944.110352;-6898.240234;5.3;346.82;31.04;7.18;27.0;399.00;399.00;399.00;399.00;
470299;101845;-43.29;32.0;0.967;-0.546;-10.381;0.026;-0.061;-0.019;-3.956;77.066;63.799;2.8;-5.1;268.8;34.6;12;2025-05-13;14:53:51;51.935543;4.194806;-11944.110352;-6898.240234;5.3;346.82;31.04;7.18;27.0;399.00;399.00;399.00;399.00;
470399;101841;-42.91;32.0;1.006;-0.474;-10.415;0.027;-0.067;-0.013;-3.956;77.066;63.799;2.8;-5.1;268.8;34.6;12;2025-05-13;14:53:51;51.935543;4.194806;-11944.110352;-6898.240234;5.3;346.82;31.04;7.18;27.0;399.00;399.00;399.00;399.00;
470499;101842;-42.98;32.0;1.025;-0.551;-10.377;0.022;-0.069;-0.016;-3.956;77.066;63.799;2.8;-5.1;268.8;34.6;12;2025-05-13;14:53:51;51.935543;4.194806;-11944.110352;-6898.240234;5.3;346.82;31.04;7.18;27.0;399.00;399.00;399.00;399.00;
470599;101845;-43.26;32.0;0.972;-0.560;-10.396;0.026;-0.062;-0.012;-3.956;77.066;63.799;2.9;-5.1;268.7;34.6;12;2025-05-13;14:53:52;51.935547;4.194805;-11944.212891;-6898.184570;5.3;346.82;37.35;7.88;27.0;399.00;399.00;399.00;399.00;
470699;101845;-43.22;32.0;0.977;-0.488;-10.348;0.025;-0.066;-0.013;-3.956;77.066;63.799;2.9;-5.1;268.7;34.7;12;2025-05-13;14:53:52;51.935547;4.194805;-11944.212891;-6898.184570;5.1;346.82;36.30;7.77;27.0;399.00;399.00;399.00;399.00;
470799;101846;-43.30;32.0;1.058;-0.503;-10.405;0.021;-0.063;-0.013;-3.956;77.066;63.799;2.9;-5.1;268.7;34.6;12;2025-05-13;14:53:52;51.935547;4.194805;-11944.212891;-6898.184570;5.1;346.82;33.14;7.42;27.0;399.00;399.00;399.00;399.00;
470899;101842;-43.02;32.0;1.006;-0.565;-10.353;0.023;-0.062;-0.013;-3.956;77.066;63.799;2.9;-5.1;268.7;34.6;12;2025-05-13;14:53:52;51.935547;4.194805;-11944.212891;-6898.184570;5.1;346.82;27.88;6.81;27.0;399.00;399.00;399.00;399.00;
470999;101843;-43.05;32.0;0.977;-0.508;-10.357;0.025;-0.064;-0.015;-3.956;77.066;63.799;2.9;-5.1;268.7;34.7;12;2025-05-13;14:53:52;51.935547;4.194805;-11944.212891;-6898.184570;5.1;346.82;37.35;7.88;27.0;399.00;399.00;399.00;399.00;
471099;101843;-43.06;32.0;1.006;-0.484;-10.310;0.020;-0.064;-0.013;-3.956;77.066;63.799;2.9;-5.1;268.7;34.6;12;2025-05-13;14:53:52;51.935547;4.194805;-11944.212891;-6898.184570;5.1;346.82;28.93;6.93;27.0;399.00;399.00;399.00;399.00;
471199;101844;-43.12;32.0;1.025;-0.436;-10.329;0.022;-0.061;-0.013;-3.956;77.066;63.799;2.8;-5.2;268.7;34.6;12;2025-05-13;14:53:52;51.935547;4.194805;-11944.212891;-6898.184570;5.1;346.82;36.30;7.77;27.0;399.00;399.00;399.00;399.00;
471299;101843;-43.11;32.0;0.958;-0.469;-10.367;0.021;-0.065;-0.013;-3.956;77.066;63.799;2.8;-5.1;268.7;34.7;12;2025-05-13;14:53:52;51.935547;4.194805;-11944.212891;-6898.184570;5.1;346.82;36.30;7.77;27.0;399.00;399.00;399.00;399.00;
471399;101846;-43.32;32.0;1.030;-0.522;-10.410;0.022;-0.063;-0.012;-3.956;77.066;63.799;2.8;-5.2;268.7;34.6;12;2025-05-13;14:53:52;51.935547;4.194805;-11944.212891;-6898.184570;5.1;346.82;36.30;7.77;27.0;399.00;399.00;399.00;399.00;
471499;101844;-43.15;32.0;0.953;-0.488;-10.429;0.022;-0.067;-0.016;-3.956;77.066;63.799;2.8;-5.1;268.7;34.7;12;2025-05-13;14:53:52;51.935547;4.194805;-11944.212891;-6898.184570;5.1;346.82;33.14;7.42;27.0;399.00;399.00;399.00;399.00;
471599;101845;-43.24;32.0;0.996;-0.488;-10.386;0.025;-0.062;-0.011;-3.956;77.066;63.799;2.8;-5.1;268.7;34.6;12;2025-05-13;14:53:53;51.935547;4.194802;-11944.373047;-6898.091797;5.1;346.82;33.14;7.42;27.0;399.00;399.00;399.00;399.00;
471699;101844;-43.19;32.0;0.967;-0.488;-10.434;0.028;-0.068;-0.013;-3.596;75.991;63.452;2.8;-5.1;268.7;34.6;12;2025-05-13;14:53:53;51.935547;4.194802;-11944.373047;-6898.091797;5.0;346.82;33.14;7.42;27.0;399.00;399.00;399.00;399.00;
471799;101841;-42.91;32.0;1.049;-0.474;-10.367;0.025;-0.066;-0.013;-7.552;79.575;64.492;2.8;-5.2;268.7;34.6;12;2025-05-13;14:53:53;51.935547;4.194802;-11944.373047;-6898.091797;5.0;346.82;33.14;7.42;27.0;399.00;399.00;399.00;399.00;
471899;101842;-42.98;32.0;1.001;-0.445;-10.386;0.021;-0.063;-0.013;-7.552;79.575;64.492;2.8;-5.3;268.8;34.6;12;2025-05-13;14:53:53;51.935547;4.194802;-11944.373047;-6898.091797;5.0;346.82;31.04;7.18;27.0;399.00;399.00;399.00;399.00;
471999;101844;-43.12;32.0;1.020;-0.522;-10.401;0.022;-0.066;-0.013;-7.552;79.575;64.492;2.8;-5.3;268.9;34.6;12;2025-05-13;14:53:53;51.935547;4.194802;-11944.373047;-6898.091797;5.0;346.82;33.14;7.42;27.0;399.00;399.00;399.00;399.00;
472099;101841;-42.95;32.0;0.962;-0.522;-10.444;0.019;-0.066;-0.015;-7.552;79.575;64.492;2.8;-5.4;268.9;34.7;12;2025-05-13;14:53:53;51.935547;4.194802;-11944.373047;-6898.091797;5.0;346.82;36.30;7.77;27.0;399.00;399.00;399.00;399.00;
472199;101841;-42.92;32.0;1.015;-0.527;-10.372;0.022;-0.060;-0.011;-7.552;79.575;64.492;2.8;-5.4;269.0;34.6;12;2025-05-13;14:53:53;51.935547;4.194802;-11944.373047;-6898.091797;5.0;346.82;33.14;7.42;27.0;399.00;399.00;399.00;399.00;
472299;101843;-43.09;32.0;1.053;-0.436;-10.348;0.022;-0.066;-0.011;-7.552;79.575;64.492;2.8;-5.5;269.0;34.6;12;2025-05-13;14:53:53;51.935547;4.194802;-11944.373047;-6898.091797;5.0;346.82;37.35;7.88;27.0;399.00;399.00;399.00;399.00;
472399;101843;-43.08;32.0;1.044;-0.527;-10.415;0.023;-0.066;-0.015;-7.552;79.575;64.492;2.8;-5.5;269.1;34.6;12;2025-05-13;14:53:53;51.935547;4.194802;-11944.373047;-6898.091797;5.0;346.82;28.93;6.93;27.0;399.00;399.00;399.00;399.00;
472499;101843;-43.08;32.0;0.962;-0.575;-10.362;0.025;-0.063;-0.013;-7.552;79.575;64.492;2.8;-5.6;269.1;34.6;12;2025-05-13;14:53:53;51.935547;4.194802;-11944.373047;-6898.091797;5.0;346.82;27.88;6.81;27.0;399.00;399.00;399.00;399.00;
472599;101842;-43.01;32.0;0.977;-0.474;-10.372;0.023;-0.065;-0.014;-7.552;79.575;64.492;2.8;-5.6;269.2;34.7;12;2025-05-13;14:53:54;51.935547;4.194803;-11944.316406;-6898.091797;5.0;346.82;36.30;7.77;27.0;399.00;399.00;399.00;399.00;
472699;101844;-43.19;32.0;1.006;-0.488;-10.391;0.026;-0.067;-0.013;-7.552;79.575;64.492;2.8;-5.6;269.2;34.6;12;2025-05-13;14:53:54;51.935547;4.194803;-11944.316406;-6898.091797;5.1;346.82;33.14;7.42;27.0;399.00;399.00;399.00;399.00;
472799;101846;-43.37;32.0;0.953;-0.527;-10.425;0.025;-0.062;-0.016;-7.552;79.575;64.492;2.8;-5.6;269.2;34.6;12;2025-05-13;14:53:54;51.935547;4.194803;-11944.316406;-6898.091797;5.1;346.82;33.14;7.42;27.0;399.00;399.00;399.00;399.00;
472899;101842;-42.98;32.0;1.010;-0.460;-10.401;0.020;-0.069;-0.013;-7.552;79.575;64.492;2.8;-5.6;269.3;34.7;12;2025-05-13;14:53:54;51.935547;4.194803;-11944.316406;-6898.091797;5.1;346.82;33.14;7.42;27.0;399.00;399.00;399.00;399.00;
472999;101845;-43.21;32.0;0.962;-0.560;-10.444;0.023;-0.065;-0.011;-7.552;79.575;64.492;2.8;-5.7;269.3;34.6;12;2025-05-13;14:53:54;51.935547;4.194803;-11944.316406;-6898.091797;5.1;346.82;36.30;7.77;27.0;399.00;399.00;399.00;399.00;
473099;101843;-43.09;32.0;0.943;-0.527;-10.410;0.026;-0.064;-0.009;-7.552;79.575;64.492;2.8;-5.7;269.4;34.6;12;2025-05-13;14:53:54;51.935547;4.194803;-11944.316406;-6898.091797;5.1;346.82;28.93;6.93;27.0;399.00;399.00;399.00;399.00;
473199;101845;-43.22;32.0;0.972;-0.484;-10.381;0.025;-0.067;-0.015;-7.552;79.575;64.492;2.8;-5.7;269.4;34.6;12;2025-05-13;14:53:54;51.935547;4.194803;-11944.316406;-6898.091797;5.1;346.82;36.30;7.77;27.0;399.00;399.00;399.00;399.00;
473299;101844;-43.12;32.0;1.030;-0.479;-10.434;0.022;-0.064;-0.017;-7.552;79.575;64.492;2.8;-5.7;269.4;34.7;12;2025-05-13;14:53:54;51.935547;4.194803;-11944.316406;-6898.091797;5.1;346.82;37.35;7.88;27.0;399.00;399.00;399.00;399.00;
473399;101847;-43.42;32.0;0.991;-0.512;-10.453;0.023;-0.066;-0.013;-7.552;79.575;64.492;2.8;-5.7;269.5;34.6;12;2025-05-13;14:53:54;51.935547;4.194803;-11944.316406;-6898.091797;5.1;346.82;33.14;7.42;27.0;399.00;399.00;399.00;399.00;
473499;101847;-43.42;32.0;0.991;-0.493;-10.401;0.023;-0.062;-0.014;-7.552;79.575;64.492;2.8;-5.7;269.5;34.6;12;2025-05-13;14:53:54;51.935547;4.194803;-11944.316406;-6898.091797;5.1;346.82;33.14;7.42;27.0;399.00;399.00;399.00;399.00;
473599;101845;-43.21;32.0;0.967;-0.479;-10.377;0.023;-0.065;-0.014;-7.552;79.575;64.492;2.8;-5.7;269.5;34.6;12;2025-05-13;14:53:55;51.935547;4.194805;-11944.178711;-6898.147461;5.1;346.82;31.04;7.18;27.0;399.00;399.00;399.00;399.00;
